subject_id,task,trial_block,trial_number,shape1,label1,correct_key,participant_response,reaction_time,participant_correct,event_name,image,word,stimulus,category
1,localizer,1,1,,carre,,,,TRUE,word,1.0,0.0,carre,shape
1,localizer,1,2,croix,,,,,TRUE,image,0.0,1.0,croix,shape
1,localizer,1,3,,dinde,,,,TRUE,word,1.0,0.0,dinde,agent
1,localizer,1,4,biche,,,,,TRUE,image,0.0,1.004,biche,agent
1,localizer,1,5,,cercle,,,,TRUE,word,1.0,0.0,cercle,shape
1,localizer,1,6,dinde,,,,,TRUE,image,0.0,1.0,dinde,agent
1,localizer,1,7,,losange,,,,TRUE,word,1.0,0.0,losange,shape
1,localizer,1,8,croix,,,,,TRUE,image,0.0,1.0,croix,shape
1,localizer,1,9,,croix,j,j,498.0,TRUE,word,1.0,0.0,croix,shape
1,localizer,1,10,pince,,,,,TRUE,image,0.0,1.0,pince,object
1,localizer,1,11,,biche,,,,TRUE,word,1.004,0.0,biche,agent
1,localizer,1,12,pince,,,,,TRUE,image,0.0,1.0,pince,object
1,localizer,1,13,,pince,j,j,618.0,TRUE,word,1.0,0.0,pince,object
1,localizer,1,14,dinde,,,,,TRUE,image,0.0,1.0,dinde,agent
1,localizer,1,15,,croix,,,,TRUE,word,1.0,0.0,croix,shape
1,localizer,1,16,croix,,j,j,456.0,TRUE,image,0.0,1.0,croix,shape
1,localizer,1,17,,pince,,,,TRUE,word,1.0,0.0,pince,object
1,localizer,1,18,pince,,j,j,472.0,TRUE,image,0.0,1.0,pince,object
1,localizer,1,19,,losange,,,,TRUE,word,1.004,0.0,losange,shape
1,localizer,1,20,carre,,,,,TRUE,image,0.0,1.0,carre,shape
1,localizer,1,21,,dinde,,,,TRUE,word,1.0,0.0,dinde,agent
1,localizer,1,22,pince,,,,,TRUE,image,0.0,1.0,pince,object
1,localizer,1,23,,lampe,,,,TRUE,word,1.0,0.0,lampe,object
1,localizer,1,24,cercle,,,,,TRUE,image,0.0,1.0,cercle,shape
1,localizer,1,25,,biche,,,,TRUE,word,1.0,0.0,biche,agent
1,localizer,1,26,cercle,,,,,TRUE,image,0.0,1.0,cercle,shape
1,localizer,1,27,,carre,,,,TRUE,word,,0.0,carre,shape
1,localizer,1,28,biche,,,,,TRUE,image,0.0,1.0,biche,agent
1,localizer,1,29,,dinde,,,,TRUE,word,1.0,0.0,dinde,agent
1,localizer,1,30,carre,,,,,TRUE,image,0.0,1.0,carre,shape
1,localizer,1,31,,biche,,,,TRUE,word,1.0,0.0,biche,agent
1,localizer,1,32,carre,,,,,TRUE,image,0.0,1.0,carre,shape
1,localizer,1,33,,losange,,,,TRUE,word,1.0,0.0,losange,shape
1,localizer,1,34,croix,,,,,TRUE,image,0.0,1.0,croix,shape
1,localizer,1,35,,biche,,,,TRUE,word,1.0,0.0,biche,agent
1,localizer,1,36,lampe,,,,,TRUE,image,0.0,1.0,lampe,object
1,localizer,1,37,,croix,,,,TRUE,word,1.0,0.0,croix,shape
1,localizer,1,38,cercle,,,,,TRUE,image,0.0,1.004,cercle,shape
1,localizer,1,39,,croix,,,,TRUE,word,1.0,0.0,croix,shape
1,localizer,1,40,cercle,,,,,TRUE,image,0.0,1.0,cercle,shape
1,localizer,1,41,,dinde,,,,TRUE,word,1.0,0.0,dinde,agent
1,localizer,1,42,croix,,,,,TRUE,image,0.0,1.0,croix,shape
1,localizer,1,43,,cercle,,,,TRUE,word,1.0,0.0,cercle,shape
1,localizer,1,44,lampe,,,,,TRUE,image,0.0,1.004,lampe,object
1,localizer,1,45,,pince,,,,TRUE,word,1.0,0.0,pince,object
1,localizer,1,46,losange,,,,,TRUE,image,0.0,1.0,losange,shape
1,localizer,1,47,,pince,,,,TRUE,word,1.0,0.0,pince,object
1,localizer,1,48,pince,,j,j,554.0,TRUE,image,0.0,1.0,pince,object
1,localizer,1,49,,croix,,,,TRUE,word,1.0,0.0,croix,shape
1,localizer,1,50,carre,,,,,TRUE,image,0.0,1.0,carre,shape
1,localizer,1,51,,carre,j,j,600.0,TRUE,word,1.0,0.0,carre,shape
1,localizer,1,52,lampe,,,,,TRUE,image,0.0,1.004,lampe,object
1,localizer,1,53,,lampe,j,j,492.0,TRUE,word,1.0,0.0,lampe,object
1,localizer,1,54,dinde,,,,,TRUE,image,0.0,1.0,dinde,agent
1,localizer,1,55,,biche,,,,TRUE,word,1.0,0.0,biche,agent
1,localizer,1,56,croix,,,,,TRUE,image,0.0,1.0,croix,shape
1,localizer,1,57,,pince,,,,TRUE,word,1.0,0.0,pince,object
1,localizer,1,58,losange,,,,,TRUE,image,0.0,1.0,losange,shape
1,localizer,1,59,,carre,,,,TRUE,word,1.0,0.0,carre,shape
1,localizer,1,60,carre,,j,j,476.0,TRUE,image,0.0,1.0,carre,shape
1,localizer,1,61,,carre,j,j,624.0,TRUE,word,1.0,0.0,carre,shape
1,localizer,1,62,croix,,,,,TRUE,image,0.0,1.0,croix,shape
1,localizer,1,63,,croix,j,j,529.0,TRUE,word,1.004,0.0,croix,shape
1,localizer,1,64,losange,,,,,TRUE,image,0.0,1.0,losange,shape
1,localizer,1,65,,croix,,,,TRUE,word,1.0,0.0,croix,shape
1,localizer,1,66,biche,,,,,TRUE,image,0.0,1.0,biche,agent
1,localizer,1,67,,losange,,,,TRUE,word,1.0,0.0,losange,shape
1,localizer,1,68,carre,,,,,TRUE,image,0.0,1.0,carre,shape
1,localizer,1,69,,pince,,,,TRUE,word,1.0,0.0,pince,object
1,localizer,1,70,carre,,,,,TRUE,image,0.0,1.0,carre,shape
1,localizer,1,71,,carre,j,j,453.0,TRUE,word,1.004,0.0,carre,shape
1,localizer,1,72,carre,,j,j,429.0,TRUE,image,0.0,1.0,carre,shape
1,localizer,1,73,,lampe,,,,TRUE,word,1.0,0.0,lampe,object
1,localizer,1,74,dinde,,,,,TRUE,image,0.0,1.0,dinde,agent
1,localizer,1,75,,pince,,,,TRUE,word,1.0,0.0,pince,object
1,localizer,1,76,dinde,,,,,TRUE,image,0.0,,dinde,agent
1,localizer,1,77,,pince,,,,TRUE,word,1.0,0.0,pince,object
1,localizer,1,78,losange,,,,,TRUE,image,0.0,1.0,losange,shape
1,localizer,1,79,,pince,,,,TRUE,word,1.0,0.0,pince,object
1,localizer,1,80,biche,,,,,TRUE,image,0.0,1.004,biche,agent
1,localizer,1,81,,lampe,,,,TRUE,word,1.0,0.0,lampe,object
1,localizer,1,82,cercle,,,,,TRUE,image,0.0,1.0,cercle,shape
1,localizer,1,83,,croix,,,,TRUE,word,1.0,0.0,croix,shape
1,localizer,1,84,carre,,,,,TRUE,image,0.0,1.0,carre,shape
1,localizer,1,85,,carre,j,j,485.0,TRUE,word,1.0,0.0,carre,shape
1,localizer,1,86,lampe,,,,,TRUE,image,0.0,1.004,lampe,object
1,localizer,1,87,,dinde,,,,TRUE,word,1.0,0.0,dinde,agent
1,localizer,1,88,pince,,,,,TRUE,image,0.0,1.0,pince,object
1,localizer,1,89,,cercle,,,,TRUE,word,1.0,0.0,cercle,shape
1,localizer,1,90,carre,,,,,TRUE,image,0.0,1.0,carre,shape
1,localizer,1,91,,losange,,,,TRUE,word,1.0,0.0,losange,shape
1,localizer,1,92,carre,,,,,TRUE,image,0.0,1.0,carre,shape
1,localizer,1,93,,croix,,,,TRUE,word,1.0,0.0,croix,shape
1,localizer,1,94,cercle,,,,,TRUE,image,0.0,1.004,cercle,shape
1,localizer,1,95,,cercle,j,j,575.0,TRUE,word,1.0,0.0,cercle,shape
1,localizer,1,96,losange,,,,,TRUE,image,0.0,1.0,losange,shape
1,localizer,1,97,,carre,,,,TRUE,word,1.0,0.0,carre,shape
1,localizer,1,98,cercle,,,,,TRUE,image,0.0,1.0,cercle,shape
1,localizer,1,99,,dinde,,,,TRUE,word,1.0,0.0,dinde,agent
1,localizer,1,100,lampe,,,,,TRUE,image,0.0,1.0,lampe,object
1,localizer,1,101,,lampe,j,j,685.0,TRUE,word,1.0,0.0,lampe,object
1,localizer,1,102,biche,,,,,TRUE,image,0.0,1.0,biche,agent
1,localizer,1,103,,losange,,,,TRUE,word,1.0,0.0,losange,shape
1,localizer,1,104,lampe,,,,,TRUE,image,0.0,1.0,lampe,object
1,localizer,1,105,,cercle,,,,TRUE,word,1.004,0.0,cercle,shape
1,localizer,1,106,lampe,,,,,TRUE,image,0.0,1.0,lampe,object
1,localizer,1,107,,dinde,,,,TRUE,word,1.0,0.0,dinde,agent
1,localizer,1,108,dinde,,j,,,FALSE,image,0.0,1.0,dinde,agent
1,localizer,1,109,,cercle,,,,TRUE,word,1.0,0.0,cercle,shape
1,localizer,1,110,pince,,,,,TRUE,image,0.0,1.0,pince,object
1,localizer,1,111,,carre,,,,TRUE,word,1.0,0.0,carre,shape
1,localizer,1,112,biche,,,,,TRUE,image,0.0,1.0,biche,agent
1,localizer,1,113,,dinde,,,,TRUE,word,1.004,0.0,dinde,agent
1,localizer,1,114,carre,,,,,TRUE,image,0.0,1.0,carre,shape
1,localizer,1,115,,losange,,,,TRUE,word,1.0,0.0,losange,shape
1,localizer,1,116,losange,,j,j,497.0,TRUE,image,0.0,1.0,losange,shape
1,localizer,1,117,,croix,,,,TRUE,word,1.0,0.0,croix,shape
1,localizer,1,118,cercle,,,,,TRUE,image,0.0,1.0,cercle,shape
1,localizer,1,119,,croix,,j,467.0,FALSE,word,1.0,0.0,croix,shape
1,localizer,1,120,cercle,,,,,TRUE,image,0.0,1.0,cercle,shape
1,localizer,1,121,,biche,,,,TRUE,word,1.0,0.0,biche,agent
1,localizer,1,122,carre,,,,,TRUE,image,0.0,1.004,carre,shape
1,localizer,1,123,,losange,,,,TRUE,word,1.0,0.0,losange,shape
1,localizer,1,124,losange,,j,j,588.0,TRUE,image,0.0,,losange,shape
1,localizer,1,125,,dinde,,,,TRUE,word,1.0,0.0,dinde,agent
1,localizer,1,126,cercle,,,,,TRUE,image,0.0,1.0,cercle,shape
1,localizer,1,127,,croix,,,,TRUE,word,1.0,0.0,croix,shape
1,localizer,1,128,cercle,,,,,TRUE,image,0.0,1.004,cercle,shape
1,localizer,1,129,,biche,,,,TRUE,word,1.0,0.0,biche,agent
1,localizer,1,130,lampe,,,,,TRUE,image,0.0,1.0,lampe,object
1,localizer,1,131,,cercle,,,,TRUE,word,1.0,0.0,cercle,shape
1,localizer,1,132,carre,,,,,TRUE,image,0.0,1.0,carre,shape
1,localizer,1,133,,lampe,,,,TRUE,word,1.0,0.0,lampe,object
1,localizer,1,134,pince,,,,,TRUE,image,0.0,1.0,pince,object
1,localizer,1,135,,carre,,,,TRUE,word,1.0,0.0,carre,shape
1,localizer,1,136,losange,,,,,TRUE,image,0.0,1.004,losange,shape
1,localizer,1,137,,carre,,,,TRUE,word,1.0,0.0,carre,shape
1,localizer,1,138,carre,,j,j,442.0,TRUE,image,0.0,1.0,carre,shape
1,localizer,1,139,,cercle,,,,TRUE,word,1.0,0.0,cercle,shape
1,localizer,1,140,cercle,,j,j,475.0,TRUE,image,0.0,1.0,cercle,shape
1,localizer,1,141,,lampe,,,,TRUE,word,1.0,0.0,lampe,object
1,localizer,1,142,dinde,,,,,TRUE,image,0.0,1.0,dinde,agent
1,localizer,1,143,,pince,,,,TRUE,word,1.0,0.0,pince,object
1,localizer,1,144,dinde,,,,,TRUE,image,0.0,1.0,dinde,agent
1,localizer,1,145,,croix,,,,TRUE,word,1.0,0.0,croix,shape
1,localizer,1,146,dinde,,,,,TRUE,image,0.0,1.0,dinde,agent
1,localizer,1,147,,losange,,,,TRUE,word,1.004,0.0,losange,shape
1,localizer,1,148,dinde,,,,,TRUE,image,0.0,1.0,dinde,agent
1,localizer,1,149,,dinde,j,j,563.0,TRUE,word,1.0,0.0,dinde,agent
1,localizer,1,150,lampe,,,,,TRUE,image,0.0,1.0,lampe,object
1,localizer,1,151,,croix,,,,TRUE,word,1.0,0.0,croix,shape
1,localizer,1,152,lampe,,,,,TRUE,image,0.0,1.0,lampe,object
1,localizer,1,153,,carre,,,,TRUE,word,1.0,0.0,carre,shape
1,localizer,1,154,lampe,,,,,TRUE,image,0.0,1.0,lampe,object
1,localizer,1,155,,pince,,,,TRUE,word,1.004,0.0,pince,object
1,localizer,1,156,biche,,,,,TRUE,image,0.0,1.0,biche,agent
1,localizer,1,157,,carre,,,,TRUE,word,1.0,0.0,carre,shape
1,localizer,1,158,cercle,,,,,TRUE,image,0.0,1.0,cercle,shape
1,localizer,1,159,,biche,,,,TRUE,word,1.0,0.0,biche,agent
1,localizer,1,160,cercle,,,,,TRUE,image,0.0,1.0,cercle,shape
1,localizer,1,161,,cercle,j,,,FALSE,word,1.0,0.0,cercle,shape
1,localizer,1,162,croix,,,,,TRUE,image,0.0,1.0,croix,shape
1,localizer,1,163,,dinde,,,,TRUE,word,1.004,0.0,dinde,agent
1,localizer,1,164,cercle,,,,,TRUE,image,0.0,1.0,cercle,shape
1,localizer,1,165,,pince,,,,TRUE,word,1.0,0.0,pince,object
1,localizer,1,166,pince,,j,j,473.0,TRUE,image,0.0,1.0,pince,object
1,localizer,1,167,,lampe,,,,TRUE,word,1.0,0.0,lampe,object
1,localizer,1,168,losange,,,,,TRUE,image,0.0,1.0,losange,shape
1,localizer,1,169,,croix,,,,TRUE,word,1.0,0.0,croix,shape
1,localizer,1,170,pince,,,,,TRUE,image,0.0,1.0,pince,object
1,localizer,1,171,,losange,,,,TRUE,word,1.0,0.0,losange,shape
1,localizer,1,172,lampe,,,,,TRUE,image,0.0,,lampe,object
1,localizer,1,173,,dinde,,,,TRUE,word,1.0,0.0,dinde,agent
1,localizer,1,174,biche,,,,,TRUE,image,0.0,1.0,biche,agent
1,localizer,1,175,,losange,,,,TRUE,word,1.0,0.0,losange,shape
1,localizer,1,176,croix,,,,,TRUE,image,0.0,1.0,croix,shape
1,localizer,1,177,,carre,,,,TRUE,word,1.0,0.0,carre,shape
1,localizer,1,178,losange,,,,,TRUE,image,0.0,1.004,losange,shape
1,localizer,1,179,,dinde,,,,TRUE,word,1.0,0.0,dinde,agent
1,localizer,1,180,pince,,,,,TRUE,image,0.0,1.0,pince,object
1,localizer,1,181,,pince,j,j,623.0,TRUE,word,1.0,0.0,pince,object
1,localizer,1,182,biche,,,,,TRUE,image,0.0,1.0,biche,agent
1,localizer,1,183,,cercle,,,,TRUE,word,1.0,0.0,cercle,shape
1,localizer,1,184,losange,,,,,TRUE,image,0.0,1.0,losange,shape
1,localizer,1,185,,losange,j,,,FALSE,word,1.0,0.0,losange,shape
1,localizer,1,186,lampe,,,j,0.0,FALSE,image,0.0,1.0,lampe,object
1,localizer,1,187,,carre,,,,TRUE,word,1.0,0.0,carre,shape
1,localizer,1,188,dinde,,,,,TRUE,image,0.0,1.0,dinde,agent
1,localizer,1,189,,dinde,j,j,484.0,TRUE,word,1.004,0.0,dinde,agent
1,localizer,1,190,losange,,,,,TRUE,image,0.0,1.0,losange,shape
1,localizer,1,191,,croix,,,,TRUE,word,1.0,0.0,croix,shape
1,localizer,1,192,biche,,,,,TRUE,image,0.0,1.0,biche,agent
1,localizer,1,193,,carre,,,,TRUE,word,1.0,0.0,carre,shape
1,localizer,1,194,carre,,j,j,563.0,TRUE,image,0.0,1.0,carre,shape
1,localizer,1,195,,biche,,,,TRUE,word,1.0,0.0,biche,agent
1,localizer,1,196,losange,,,,,TRUE,image,0.0,1.0,losange,shape
1,localizer,1,197,,cercle,,,,TRUE,word,1.004,0.0,cercle,shape
1,localizer,1,198,croix,,,,,TRUE,image,0.0,1.0,croix,shape
1,localizer,1,199,,lampe,,,,TRUE,word,1.0,0.0,lampe,object
1,localizer,1,200,pince,,,,,TRUE,image,0.0,1.0,pince,object
1,localizer,1,201,,pince,j,j,750.0,TRUE,word,1.0,0.0,pince,object
1,localizer,1,202,carre,,,,,TRUE,image,0.0,1.0,carre,shape
1,localizer,1,203,,pince,,,,TRUE,word,1.0,0.0,pince,object
1,localizer,1,204,carre,,,,,TRUE,image,0.0,1.0,carre,shape
1,localizer,1,205,,dinde,,,,TRUE,word,1.0,0.0,dinde,agent
1,localizer,1,206,losange,,,,,TRUE,image,0.0,1.004,losange,shape
1,localizer,1,207,,carre,,,,TRUE,word,1.0,0.0,carre,shape
1,localizer,1,208,dinde,,,,,TRUE,image,0.0,1.0,dinde,agent
1,localizer,1,209,,cercle,,,,TRUE,word,1.0,0.0,cercle,shape
1,localizer,1,210,biche,,,,,TRUE,image,0.0,1.0,biche,agent
1,localizer,1,211,,carre,,,,TRUE,word,1.0,0.0,carre,shape
1,localizer,1,212,losange,,,,,TRUE,image,0.0,1.0,losange,shape
1,localizer,1,213,,croix,,,,TRUE,word,1.0,0.0,croix,shape
1,localizer,1,214,carre,,,,,TRUE,image,0.0,1.004,carre,shape
1,localizer,1,215,,lampe,,,,TRUE,word,1.0,0.0,lampe,object
1,localizer,1,216,biche,,,,,TRUE,image,0.0,1.0,biche,agent
1,localizer,1,217,,losange,,,,TRUE,word,1.0,0.0,losange,shape
1,localizer,1,218,croix,,,,,TRUE,image,0.0,1.0,croix,shape
1,localizer,1,219,,biche,,,,TRUE,word,1.0,0.0,biche,agent
1,localizer,1,220,biche,,j,j,523.0,TRUE,image,0.0,,biche,agent
1,localizer,1,221,,carre,,,,TRUE,word,1.0,0.0,carre,shape
1,localizer,1,222,biche,,,,,TRUE,image,0.0,1.0,biche,agent
1,localizer,1,223,,lampe,,,,TRUE,word,1.0,0.0,lampe,object
1,localizer,1,224,croix,,,,,TRUE,image,0.0,1.0,croix,shape
1,localizer,1,225,,dinde,,,,TRUE,word,1.0,0.0,dinde,agent
1,localizer,1,226,pince,,,,,TRUE,image,0.0,1.0,pince,object
1,localizer,1,227,,croix,,,,TRUE,word,1.0,0.0,croix,shape
1,localizer,1,228,pince,,,,,TRUE,image,0.0,1.0,pince,object
1,localizer,1,229,,cercle,,,,TRUE,word,1.0,0.0,cercle,shape
1,localizer,1,230,losange,,,,,TRUE,image,0.0,1.0,losange,shape
1,localizer,1,231,,biche,,,,TRUE,word,1.004,0.0,biche,agent
1,localizer,1,232,lampe,,,,,TRUE,image,0.0,1.0,lampe,object
1,localizer,1,233,,pince,,,,TRUE,word,1.0,0.0,pince,object
1,localizer,1,234,pince,,j,j,433.0,TRUE,image,0.0,1.0,pince,object
1,localizer,1,235,,biche,,,,TRUE,word,1.0,0.0,biche,agent
1,localizer,1,236,lampe,,,,,TRUE,image,0.0,1.0,lampe,object
1,localizer,1,237,,dinde,,,,TRUE,word,1.0,0.0,dinde,agent
1,localizer,1,238,carre,,,,,TRUE,image,0.0,1.0,carre,shape
1,localizer,1,239,,biche,,,,TRUE,word,1.004,0.0,biche,agent
1,localizer,1,240,dinde,,,,,TRUE,image,0.0,1.0,dinde,agent
1,localizer,1,241,,croix,,,,TRUE,word,1.0,0.0,croix,shape
1,localizer,1,242,carre,,,,,TRUE,image,0.0,1.0,carre,shape
1,localizer,1,243,,losange,,,,TRUE,word,1.0,0.0,losange,shape
1,localizer,1,244,croix,,,,,TRUE,image,0.0,1.0,croix,shape
1,localizer,1,245,,lampe,,,,TRUE,word,1.0,0.0,lampe,object
1,localizer,1,246,carre,,,,,TRUE,image,0.0,1.004,carre,shape
1,localizer,1,247,,lampe,,,,TRUE,word,1.0,0.0,lampe,object
1,localizer,1,248,dinde,,,,,TRUE,image,0.0,1.0,dinde,agent
1,localizer,1,249,,biche,,,,TRUE,word,1.0,0.0,biche,agent
1,localizer,1,250,losange,,,,,TRUE,image,0.0,1.0,losange,shape
1,localizer,1,251,,cercle,,,,TRUE,word,1.0,0.0,cercle,shape
1,localizer,1,252,carre,,,,,TRUE,image,0.0,1.0,carre,shape
1,localizer,1,253,,pince,,,,TRUE,word,1.0,0.0,pince,object
1,localizer,1,254,carre,,,,,TRUE,image,0.0,1.004,carre,shape
1,localizer,1,255,,cercle,,,,TRUE,word,1.0,0.0,cercle,shape
1,localizer,1,256,dinde,,,,,TRUE,image,0.0,1.0,dinde,agent
1,localizer,1,257,,carre,,,,TRUE,word,1.0,0.0,carre,shape
1,localizer,1,258,croix,,,,,TRUE,image,0.0,1.0,croix,shape
1,localizer,1,259,,carre,,,,TRUE,word,1.0,0.0,carre,shape
1,localizer,1,260,lampe,,,,,TRUE,image,0.0,1.0,lampe,object
1,localizer,1,261,,cercle,,,,TRUE,word,1.0,0.0,cercle,shape
1,localizer,1,262,cercle,,j,j,573.0,TRUE,image,0.0,1.004,cercle,shape
1,localizer,1,263,,dinde,,,,TRUE,word,1.0,0.0,dinde,agent
1,localizer,1,264,losange,,,,,TRUE,image,0.0,1.0,losange,shape
1,localizer,1,265,,losange,j,,,FALSE,word,1.0,0.0,losange,shape
1,localizer,1,266,croix,,,,,TRUE,image,0.0,1.0,croix,shape
1,localizer,1,267,,losange,,,,TRUE,word,1.0,0.0,losange,shape
1,localizer,1,268,biche,,,,,TRUE,image,0.0,1.0,biche,agent
1,localizer,1,269,,carre,,,,TRUE,word,,0.0,carre,shape
1,localizer,1,270,losange,,,,,TRUE,image,0.0,1.0,losange,shape
1,localizer,1,271,,losange,j,,,FALSE,word,1.0,0.0,losange,shape
1,localizer,1,272,biche,,,j,0.0,FALSE,image,0.0,1.0,biche,agent
1,localizer,1,273,,biche,j,,,FALSE,word,1.004,0.0,biche,agent
1,localizer,1,274,pince,,,,,TRUE,image,0.0,1.0,pince,object
1,localizer,1,275,,dinde,,,,TRUE,word,1.0,0.0,dinde,agent
1,localizer,1,276,cercle,,,,,TRUE,image,0.0,1.0,cercle,shape
1,localizer,1,277,,croix,,,,TRUE,word,1.0,0.0,croix,shape
1,localizer,1,278,carre,,,,,TRUE,image,0.0,1.0,carre,shape
1,localizer,1,279,,lampe,,,,TRUE,word,1.0,0.0,lampe,object
1,localizer,1,280,cercle,,,,,TRUE,image,0.0,1.0,cercle,shape
1,localizer,1,281,,biche,,,,TRUE,word,1.004,0.0,biche,agent
1,localizer,1,282,losange,,,,,TRUE,image,0.0,1.0,losange,shape
1,localizer,1,283,,carre,,,,TRUE,word,1.0,0.0,carre,shape
1,localizer,1,284,biche,,,,,TRUE,image,0.0,1.0,biche,agent
1,localizer,1,285,,dinde,,,,TRUE,word,1.0,0.0,dinde,agent
1,localizer,1,286,dinde,,j,j,464.0,TRUE,image,0.0,1.0,dinde,agent
1,localizer,1,287,,dinde,j,j,563.0,TRUE,word,1.0,0.0,dinde,agent
1,localizer,1,288,carre,,,,,TRUE,image,0.0,1.0,carre,shape
1,localizer,1,289,,biche,,,,TRUE,word,1.0,0.0,biche,agent
1,localizer,1,290,dinde,,,,,TRUE,image,0.0,1.004,dinde,agent
1,localizer,1,291,,cercle,,,,TRUE,word,1.0,0.0,cercle,shape
1,localizer,1,292,lampe,,,,,TRUE,image,0.0,1.0,lampe,object
1,localizer,1,293,,lampe,j,j,560.0,TRUE,word,1.0,0.0,lampe,object
1,localizer,1,294,pince,,,,,TRUE,image,0.0,1.0,pince,object
1,localizer,1,295,,lampe,,,,TRUE,word,1.0,0.0,lampe,object
1,localizer,1,296,lampe,,j,j,375.0,TRUE,image,0.0,1.0,lampe,object
1,localizer,1,297,,carre,,,,TRUE,word,1.0,0.0,carre,shape
1,localizer,1,298,dinde,,,,,TRUE,image,0.0,1.004,dinde,agent
1,localizer,1,299,,dinde,j,j,503.0,TRUE,word,1.0,0.0,dinde,agent
1,localizer,1,300,pince,,,,,TRUE,image,0.0,1.0,pince,object
1,localizer,1,301,,pince,j,j,388.0,TRUE,word,1.0,0.0,pince,object
1,localizer,1,302,dinde,,,,,TRUE,image,0.0,1.0,dinde,agent
1,localizer,1,303,,cercle,,,,TRUE,word,1.0,0.0,cercle,shape
1,localizer,1,304,lampe,,,,,TRUE,image,0.0,1.0,lampe,object
1,localizer,1,305,,losange,,,,TRUE,word,1.0,0.0,losange,shape
1,localizer,1,306,biche,,,,,TRUE,image,0.0,1.0,biche,agent
1,localizer,1,307,,pince,,,,TRUE,word,1.004,0.0,pince,object
1,localizer,1,308,carre,,,,,TRUE,image,0.0,1.0,carre,shape
1,localizer,1,309,,biche,,,,TRUE,word,1.0,0.0,biche,agent
1,localizer,1,310,pince,,,,,TRUE,image,0.0,1.0,pince,object
1,localizer,1,311,,carre,,,,TRUE,word,1.0,0.0,carre,shape
1,localizer,1,312,cercle,,,,,TRUE,image,0.0,1.0,cercle,shape
1,localizer,1,313,,lampe,,,,TRUE,word,1.0,0.0,lampe,object
1,localizer,1,314,carre,,,,,TRUE,image,0.0,1.0,carre,shape
1,localizer,1,315,,pince,,,,TRUE,word,1.004,0.0,pince,object
1,localizer,1,316,biche,,,,,TRUE,image,0.0,1.0,biche,agent
1,localizer,1,317,,carre,,,,TRUE,word,,0.0,carre,shape
1,localizer,1,318,croix,,,,,TRUE,image,0.0,1.0,croix,shape
1,localizer,1,319,,dinde,,,,TRUE,word,1.0,0.0,dinde,agent
1,localizer,1,320,biche,,,,,TRUE,image,0.0,1.0,biche,agent
1,localizer,1,321,,dinde,,,,TRUE,word,1.004,0.0,dinde,agent
1,localizer,1,322,dinde,,j,j,626.0,TRUE,image,0.0,1.0,dinde,agent
1,localizer,1,323,,lampe,,,,TRUE,word,1.0,0.0,lampe,object
1,localizer,1,324,cercle,,,,,TRUE,image,0.0,1.0,cercle,shape
1,localizer,1,325,,croix,,,,TRUE,word,1.0,0.0,croix,shape
1,localizer,1,326,croix,,j,j,424.0,TRUE,image,0.0,1.0,croix,shape
1,localizer,1,327,,lampe,,,,TRUE,word,1.0,0.0,lampe,object
1,localizer,1,328,carre,,,,,TRUE,image,0.0,1.0,carre,shape
1,localizer,1,329,,dinde,,,,TRUE,word,1.004,0.0,dinde,agent
1,localizer,1,330,biche,,,,,TRUE,image,0.0,1.0,biche,agent
1,localizer,1,331,,croix,,,,TRUE,word,1.0,0.0,croix,shape
1,localizer,1,332,lampe,,,,,TRUE,image,0.0,1.0,lampe,object
1,localizer,1,333,,carre,,,,TRUE,word,1.0,0.0,carre,shape
1,localizer,1,334,biche,,,,,TRUE,image,0.0,1.0,biche,agent
1,localizer,1,335,,dinde,,,,TRUE,word,1.0,0.0,dinde,agent
1,localizer,1,336,croix,,,,,TRUE,image,0.0,1.0,croix,shape
1,localizer,1,337,,biche,,,,TRUE,word,1.0,0.0,biche,agent
1,localizer,1,338,lampe,,,,,TRUE,image,0.0,1.004,lampe,object
1,localizer,1,339,,cercle,,,,TRUE,word,1.0,0.0,cercle,shape
1,localizer,1,340,cercle,,j,j,591.0,TRUE,image,0.0,1.0,cercle,shape
1,localizer,1,341,,lampe,,,,TRUE,word,1.0,0.0,lampe,object
1,localizer,1,342,lampe,,j,j,506.0,TRUE,image,0.0,1.0,lampe,object
1,localizer,1,343,,biche,,,,TRUE,word,1.0,0.0,biche,agent
1,localizer,1,344,carre,,,,,TRUE,image,0.0,1.0,carre,shape
1,localizer,1,345,,pince,,,,TRUE,word,1.0,0.0,pince,object
1,localizer,1,346,biche,,,,,TRUE,image,0.0,1.004,biche,agent
1,localizer,1,347,,losange,,,,TRUE,word,1.0,0.0,losange,shape
1,localizer,1,348,losange,,j,j,500.0,TRUE,image,0.0,1.0,losange,shape
1,localizer,1,349,,croix,,,,TRUE,word,1.0,0.0,croix,shape
1,localizer,1,350,pince,,,,,TRUE,image,0.0,1.0,pince,object
1,localizer,1,351,,lampe,,,,TRUE,word,1.0,0.0,lampe,object
1,localizer,1,352,lampe,,j,j,448.0,TRUE,image,0.0,1.0,lampe,object
1,localizer,1,353,,croix,,,,TRUE,word,1.0,0.0,croix,shape
1,localizer,1,354,cercle,,,,,TRUE,image,0.0,1.0,cercle,shape
1,localizer,1,355,,biche,,,,TRUE,word,1.004,0.0,biche,agent
1,localizer,1,356,lampe,,,,,TRUE,image,0.0,1.0,lampe,object
1,localizer,1,357,,biche,,,,TRUE,word,1.0,0.0,biche,agent
1,localizer,1,358,losange,,,,,TRUE,image,0.0,1.0,losange,shape
1,localizer,1,359,,dinde,,,,TRUE,word,1.0,0.0,dinde,agent
1,localizer,1,360,biche,,,,,TRUE,image,0.0,1.0,biche,agent
1,localizer,1,361,,croix,,,,TRUE,word,1.0,0.0,croix,shape
1,localizer,1,362,biche,,,,,TRUE,image,0.0,1.0,biche,agent
1,localizer,1,363,,cercle,,,,TRUE,word,1.004,0.0,cercle,shape
1,localizer,1,364,lampe,,,,,TRUE,image,0.0,1.0,lampe,object
1,localizer,1,365,,carre,,,,TRUE,word,1.0,0.0,carre,shape
1,localizer,1,366,dinde,,,,,TRUE,image,0.0,,dinde,agent
1,localizer,1,367,,pince,,,,TRUE,word,1.0,0.0,pince,object
1,localizer,1,368,croix,,,,,TRUE,image,0.0,1.0,croix,shape
1,localizer,1,369,,biche,,,,TRUE,word,1.0,0.0,biche,agent
1,localizer,1,370,biche,,j,j,473.0,TRUE,image,0.0,1.0,biche,agent
1,localizer,1,371,,lampe,,,,TRUE,word,1.0,0.0,lampe,object
1,localizer,1,372,losange,,,,,TRUE,image,0.0,1.0,losange,shape
1,localizer,1,373,,croix,,,,TRUE,word,1.004,0.0,croix,shape
1,localizer,1,374,croix,,j,j,676.0,TRUE,image,0.0,1.0,croix,shape
1,localizer,1,375,,pince,,,,TRUE,word,1.0,0.0,pince,object
1,localizer,1,376,losange,,,,,TRUE,image,0.0,1.0,losange,shape
1,localizer,1,377,,biche,,,,TRUE,word,1.0,0.0,biche,agent
1,localizer,1,378,losange,,,,,TRUE,image,0.0,1.0,losange,shape
1,localizer,1,379,,losange,j,,,FALSE,word,1.0,0.0,losange,shape
1,localizer,1,380,losange,,j,j,627.0,TRUE,image,0.0,1.0,losange,shape
1,localizer,1,381,,biche,,,,TRUE,word,1.0,0.0,biche,agent
1,localizer,1,382,pince,,,,,TRUE,image,0.0,1.004,pince,object
1,localizer,1,383,,losange,,,,TRUE,word,1.0,0.0,losange,shape
1,localizer,1,384,dinde,,,,,TRUE,image,0.0,1.0,dinde,agent
1,localizer,1,385,,losange,,,,TRUE,word,1.0,0.0,losange,shape
1,localizer,1,386,biche,,,,,TRUE,image,0.0,1.0,biche,agent
1,localizer,1,387,,croix,,,,TRUE,word,1.0,0.0,croix,shape
1,localizer,1,388,biche,,,,,TRUE,image,0.0,1.0,biche,agent
1,localizer,1,389,,croix,,,,TRUE,word,1.0,0.0,croix,shape
1,localizer,1,390,cercle,,,,,TRUE,image,0.0,1.004,cercle,shape
1,localizer,1,391,,pince,,,,TRUE,word,1.0,0.0,pince,object
1,localizer,1,392,croix,,,,,TRUE,image,0.0,1.0,croix,shape
1,localizer,1,393,,losange,,,,TRUE,word,1.0,0.0,losange,shape
1,localizer,1,394,pince,,,,,TRUE,image,0.0,1.0,pince,object
1,localizer,1,395,,lampe,,,,TRUE,word,1.0,0.0,lampe,object
1,localizer,1,396,cercle,,,,,TRUE,image,0.0,1.0,cercle,shape
1,localizer,1,397,,losange,,,,TRUE,word,1.0,0.0,losange,shape
1,localizer,1,398,biche,,,,,TRUE,image,0.0,1.004,biche,agent
1,localizer,1,399,,croix,,,,TRUE,word,1.0,0.0,croix,shape
1,localizer,1,400,carre,,,,,TRUE,image,0.0,1.0,carre,shape
1,localizer,1,401,,carre,j,,,FALSE,word,1.0,0.0,carre,shape
1,localizer,1,402,biche,,,,,TRUE,image,0.0,1.0,biche,agent
1,localizer,1,403,,croix,,,,TRUE,word,1.0,0.0,croix,shape
1,localizer,1,404,losange,,,,,TRUE,image,0.0,1.0,losange,shape
1,localizer,1,405,,lampe,,,,TRUE,word,1.0,0.0,lampe,object
1,localizer,1,406,croix,,,,,TRUE,image,0.0,1.0,croix,shape
1,localizer,1,407,,lampe,,,,TRUE,word,1.004,0.0,lampe,object
1,localizer,1,408,lampe,,j,j,360.0,TRUE,image,0.0,1.0,lampe,object
1,localizer,1,409,,losange,,,,TRUE,word,1.0,0.0,losange,shape
1,localizer,1,410,croix,,,,,TRUE,image,0.0,1.0,croix,shape
1,localizer,1,411,,losange,,,,TRUE,word,1.0,0.0,losange,shape
1,localizer,1,412,carre,,,,,TRUE,image,0.0,1.0,carre,shape
1,localizer,1,413,,losange,,,,TRUE,word,1.0,0.0,losange,shape
1,localizer,1,414,carre,,,,,TRUE,image,0.0,,carre,shape
1,localizer,1,415,,biche,,,,TRUE,word,1.0,0.0,biche,agent
1,localizer,1,416,lampe,,,,,TRUE,image,0.0,1.0,lampe,object
1,localizer,2,417,,dinde,,,,TRUE,word,1.0,0.0,dinde,agent
1,localizer,2,418,pince,,,,,TRUE,image,0.0,1.0,pince,object
1,localizer,2,419,,pince,j,j,670.0,TRUE,word,1.0,0.0,pince,object
1,localizer,2,420,biche,,,,,TRUE,image,0.0,1.0,biche,agent
1,localizer,2,421,,croix,,,,TRUE,word,1.004,0.0,croix,shape
1,localizer,2,422,biche,,,,,TRUE,image,0.0,1.0,biche,agent
1,localizer,2,423,,croix,,,,TRUE,word,1.0,0.0,croix,shape
1,localizer,2,424,lampe,,,,,TRUE,image,0.0,1.0,lampe,object
1,localizer,2,425,,pince,,,,TRUE,word,1.0,0.0,pince,object
1,localizer,2,426,carre,,,,,TRUE,image,0.0,1.0,carre,shape
1,localizer,2,427,,croix,,,,TRUE,word,1.0,0.0,croix,shape
1,localizer,2,428,biche,,,,,TRUE,image,0.0,1.0,biche,agent
1,localizer,2,429,,biche,j,j,578.0,TRUE,word,1.0,0.0,biche,agent
1,localizer,2,430,lampe,,,,,TRUE,image,0.0,1.004,lampe,object
1,localizer,2,431,,pince,,,,TRUE,word,1.0,0.0,pince,object
1,localizer,2,432,croix,,,,,TRUE,image,0.0,1.0,croix,shape
1,localizer,2,433,,biche,,,,TRUE,word,1.0,0.0,biche,agent
1,localizer,2,434,losange,,,,,TRUE,image,0.0,1.0,losange,shape
1,localizer,2,435,,lampe,,,,TRUE,word,1.0,0.0,lampe,object
1,localizer,2,436,cercle,,,,,TRUE,image,0.0,1.0,cercle,shape
1,localizer,2,437,,dinde,,,,TRUE,word,1.0,0.0,dinde,agent
1,localizer,2,438,biche,,,,,TRUE,image,0.0,1.004,biche,agent
1,localizer,2,439,,dinde,,,,TRUE,word,1.0,0.0,dinde,agent
1,localizer,2,440,pince,,,,,TRUE,image,0.0,1.0,pince,object
1,localizer,2,441,,biche,,,,TRUE,word,1.0,0.0,biche,agent
1,localizer,2,442,losange,,,,,TRUE,image,0.0,1.0,losange,shape
1,localizer,2,443,,pince,,,,TRUE,word,1.0,0.0,pince,object
1,localizer,2,444,croix,,,,,TRUE,image,0.0,1.0,croix,shape
1,localizer,2,445,,biche,,,,TRUE,word,1.0,0.0,biche,agent
1,localizer,2,446,carre,,,,,TRUE,image,0.0,1.0,carre,shape
1,localizer,2,447,,cercle,,,,TRUE,word,1.004,0.0,cercle,shape
1,localizer,2,448,pince,,,,,TRUE,image,0.0,1.0,pince,object
1,localizer,2,449,,lampe,,,,TRUE,word,1.0,0.0,lampe,object
1,localizer,2,450,dinde,,,,,TRUE,image,0.0,1.0,dinde,agent
1,localizer,2,451,,dinde,j,j,560.0,TRUE,word,1.0,0.0,dinde,agent
1,localizer,2,452,dinde,,j,j,600.0,TRUE,image,0.0,1.0,dinde,agent
1,localizer,2,453,,dinde,j,j,585.0,TRUE,word,1.0,0.0,dinde,agent
1,localizer,2,454,lampe,,,,,TRUE,image,0.0,1.0,lampe,object
1,localizer,2,455,,cercle,,,,TRUE,word,1.0,0.0,cercle,shape
1,localizer,2,456,losange,,,,,TRUE,image,0.0,1.0,losange,shape
1,localizer,2,457,,biche,,,,TRUE,word,1.004,0.0,biche,agent
1,localizer,2,458,carre,,,,,TRUE,image,0.0,1.0,carre,shape
1,localizer,2,459,,dinde,,,,TRUE,word,1.0,0.0,dinde,agent
1,localizer,2,460,carre,,,,,TRUE,image,0.0,1.0,carre,shape
1,localizer,2,461,,pince,,,,TRUE,word,1.0,0.0,pince,object
1,localizer,2,462,croix,,,,,TRUE,image,0.0,,croix,shape
1,localizer,2,463,,carre,,,,TRUE,word,1.0,0.0,carre,shape
1,localizer,2,464,pince,,,,,TRUE,image,0.0,1.0,pince,object
1,localizer,2,465,,carre,,,,TRUE,word,1.004,0.0,carre,shape
1,localizer,2,466,pince,,,,,TRUE,image,0.0,1.0,pince,object
1,localizer,2,467,,pince,j,j,564.0,TRUE,word,1.0,0.0,pince,object
1,localizer,2,468,dinde,,,,,TRUE,image,0.0,1.0,dinde,agent
1,localizer,2,469,,cercle,,,,TRUE,word,1.0,0.0,cercle,shape
1,localizer,2,470,croix,,,,,TRUE,image,0.0,1.0,croix,shape
1,localizer,2,471,,carre,,,,TRUE,word,1.0,0.0,carre,shape
1,localizer,2,472,carre,,j,,,FALSE,image,0.0,1.0,carre,shape
1,localizer,2,473,,losange,,,,TRUE,word,1.0,0.0,losange,shape
1,localizer,2,474,cercle,,,,,TRUE,image,0.0,1.004,cercle,shape
1,localizer,2,475,,losange,,,,TRUE,word,1.0,0.0,losange,shape
1,localizer,2,476,cercle,,,,,TRUE,image,0.0,1.0,cercle,shape
1,localizer,2,477,,lampe,,,,TRUE,word,1.0,0.0,lampe,object
1,localizer,2,478,pince,,,,,TRUE,image,0.0,1.0,pince,object
1,localizer,2,479,,cercle,,,,TRUE,word,1.0,0.0,cercle,shape
1,localizer,2,480,cercle,,j,,,FALSE,image,0.0,,cercle,shape
1,localizer,2,481,,carre,,,,TRUE,word,1.0,0.0,carre,shape
1,localizer,2,482,carre,,j,j,359.0,TRUE,image,0.0,1.0,carre,shape
1,localizer,2,483,,croix,,,,TRUE,word,1.0,0.0,croix,shape
1,localizer,2,484,croix,,j,j,456.0,TRUE,image,0.0,1.0,croix,shape
1,localizer,2,485,,cercle,,,,TRUE,word,1.0,0.0,cercle,shape
1,localizer,2,486,cercle,,j,j,372.0,TRUE,image,0.0,1.004,cercle,shape
1,localizer,2,487,,croix,,,,TRUE,word,1.0,0.0,croix,shape
1,localizer,2,488,carre,,,,,TRUE,image,0.0,1.0,carre,shape
1,localizer,2,489,,biche,,,,TRUE,word,1.0,0.0,biche,agent
1,localizer,2,490,lampe,,,,,TRUE,image,0.0,1.0,lampe,object
1,localizer,2,491,,dinde,,,,TRUE,word,1.0,0.0,dinde,agent
1,localizer,2,492,croix,,,,,TRUE,image,0.0,1.0,croix,shape
1,localizer,2,493,,lampe,,,,TRUE,word,1.0,0.0,lampe,object
1,localizer,2,494,pince,,,,,TRUE,image,0.0,1.0,pince,object
1,localizer,2,495,,lampe,,,,TRUE,word,1.0,0.0,lampe,object
1,localizer,2,496,pince,,,,,TRUE,image,0.0,1.004,pince,object
1,localizer,2,497,,cercle,,,,TRUE,word,1.0,0.0,cercle,shape
1,localizer,2,498,cercle,,j,j,460.0,TRUE,image,0.0,1.0,cercle,shape
1,localizer,2,499,,croix,,,,TRUE,word,1.0,0.0,croix,shape
1,localizer,2,500,biche,,,,,TRUE,image,0.0,1.0,biche,agent
1,localizer,2,501,,croix,,,,TRUE,word,1.0,0.0,croix,shape
1,localizer,2,502,carre,,,,,TRUE,image,0.0,1.0,carre,shape
1,localizer,2,503,,carre,j,j,497.0,TRUE,word,1.0,0.0,carre,shape
1,localizer,2,504,lampe,,,,,TRUE,image,0.0,1.0,lampe,object
1,localizer,2,505,,carre,,,,TRUE,word,1.004,0.0,carre,shape
1,localizer,2,506,dinde,,,,,TRUE,image,0.0,1.0,dinde,agent
1,localizer,2,507,,cercle,,,,TRUE,word,1.0,0.0,cercle,shape
1,localizer,2,508,dinde,,,,,TRUE,image,0.0,1.0,dinde,agent
1,localizer,2,509,,pince,,,,TRUE,word,1.0,0.0,pince,object
1,localizer,2,510,cercle,,,,,TRUE,image,0.0,1.0,cercle,shape
1,localizer,2,511,,dinde,,,,TRUE,word,1.004,0.0,dinde,agent
1,localizer,2,512,croix,,,,,TRUE,image,0.0,1.0,croix,shape
1,localizer,2,513,,dinde,,,,TRUE,word,1.0,0.0,dinde,agent
1,localizer,2,514,lampe,,,,,TRUE,image,0.0,1.0,lampe,object
1,localizer,2,515,,dinde,,,,TRUE,word,1.0,0.0,dinde,agent
1,localizer,2,516,lampe,,,,,TRUE,image,0.0,1.0,lampe,object
1,localizer,2,517,,croix,,,,TRUE,word,1.0,0.0,croix,shape
1,localizer,2,518,pince,,,,,TRUE,image,0.0,1.0,pince,object
1,localizer,2,519,,dinde,,,,TRUE,word,1.0,0.0,dinde,agent
1,localizer,2,520,dinde,,j,j,488.0,TRUE,image,0.0,1.0,dinde,agent
1,localizer,2,521,,biche,,,,TRUE,word,1.0,0.0,biche,agent
1,localizer,2,522,carre,,,,,TRUE,image,0.0,1.004,carre,shape
1,localizer,2,523,,croix,,,,TRUE,word,1.0,0.0,croix,shape
1,localizer,2,524,carre,,,,,TRUE,image,0.0,1.0,carre,shape
1,localizer,2,525,,cercle,,,,TRUE,word,1.0,0.0,cercle,shape
1,localizer,2,526,lampe,,,,,TRUE,image,0.0,1.0,lampe,object
1,localizer,2,527,,pince,,,,TRUE,word,1.0,0.0,pince,object
1,localizer,2,528,croix,,,,,TRUE,image,0.0,1.004,croix,shape
1,localizer,2,529,,pince,,,,TRUE,word,1.0,0.0,pince,object
1,localizer,2,530,croix,,,,,TRUE,image,0.0,,croix,shape
1,localizer,2,531,,biche,,,,TRUE,word,1.0,0.0,biche,agent
1,localizer,2,532,dinde,,,,,TRUE,image,0.0,1.0,dinde,agent
1,localizer,2,533,,cercle,,,,TRUE,word,1.0,0.0,cercle,shape
1,localizer,2,534,dinde,,,,,TRUE,image,0.0,1.0,dinde,agent
1,localizer,2,535,,pince,,,,TRUE,word,1.0,0.0,pince,object
1,localizer,2,536,dinde,,,,,TRUE,image,0.0,1.004,dinde,agent
1,localizer,2,537,,losange,,,,TRUE,word,1.0,0.0,losange,shape
1,localizer,2,538,croix,,,,,TRUE,image,0.0,1.0,croix,shape
1,localizer,2,539,,losange,,,,TRUE,word,1.0,0.0,losange,shape
1,localizer,2,540,carre,,,,,TRUE,image,0.0,1.0,carre,shape
1,localizer,2,541,,carre,j,j,539.0,TRUE,word,1.0,0.0,carre,shape
1,localizer,2,542,carre,,j,j,420.0,TRUE,image,0.0,1.0,carre,shape
1,localizer,2,543,,lampe,,,,TRUE,word,1.0,0.0,lampe,object
1,localizer,2,544,pince,,,,,TRUE,image,0.0,1.0,pince,object
1,localizer,2,545,,losange,,,,TRUE,word,1.004,0.0,losange,shape
1,localizer,2,546,losange,,j,j,489.0,TRUE,image,0.0,1.0,losange,shape
1,localizer,2,547,,biche,,,,TRUE,word,1.0,0.0,biche,agent
1,localizer,2,548,dinde,,,,,TRUE,image,0.0,1.0,dinde,agent
1,localizer,2,549,,losange,,,,TRUE,word,1.0,0.0,losange,shape
1,localizer,2,550,lampe,,,,,TRUE,image,0.0,1.0,lampe,object
1,localizer,2,551,,lampe,j,j,579.0,TRUE,word,1.0,0.0,lampe,object
1,localizer,2,552,biche,,,,,TRUE,image,0.0,1.0,biche,agent
1,localizer,2,553,,biche,j,j,403.0,TRUE,word,1.0,0.0,biche,agent
1,localizer,2,554,pince,,,,,TRUE,image,0.0,1.0,pince,object
1,localizer,2,555,,pince,j,j,357.0,TRUE,word,1.004,0.0,pince,object
1,localizer,2,556,lampe,,,,,TRUE,image,0.0,1.0,lampe,object
1,localizer,2,557,,pince,,,,TRUE,word,1.0,0.0,pince,object
1,localizer,2,558,pince,,j,j,650.0,TRUE,image,0.0,1.0,pince,object
1,localizer,2,559,,lampe,,,,TRUE,word,1.0,0.0,lampe,object
1,localizer,2,560,biche,,,,,TRUE,image,0.0,1.0,biche,agent
1,localizer,2,561,,cercle,,,,TRUE,word,1.004,0.0,cercle,shape
1,localizer,2,562,lampe,,,,,TRUE,image,0.0,1.0,lampe,object
1,localizer,2,563,,cercle,,,,TRUE,word,1.0,0.0,cercle,shape
1,localizer,2,564,losange,,,,,TRUE,image,0.0,1.0,losange,shape
1,localizer,2,565,,biche,,,,TRUE,word,1.0,0.0,biche,agent
1,localizer,2,566,cercle,,,,,TRUE,image,0.0,1.0,cercle,shape
1,localizer,2,567,,lampe,,,,TRUE,word,1.0,0.0,lampe,object
1,localizer,2,568,cercle,,,,,TRUE,image,0.0,1.0,cercle,shape
1,localizer,2,569,,dinde,,,,TRUE,word,1.0,0.0,dinde,agent
1,localizer,2,570,lampe,,,,,TRUE,image,0.0,1.004,lampe,object
1,localizer,2,571,,biche,,,,TRUE,word,1.0,0.0,biche,agent
1,localizer,2,572,biche,,j,j,569.0,TRUE,image,0.0,1.0,biche,agent
1,localizer,2,573,,dinde,,,,TRUE,word,1.0,0.0,dinde,agent
1,localizer,2,574,carre,,,,,TRUE,image,0.0,1.0,carre,shape
1,localizer,2,575,,croix,,,,TRUE,word,1.0,0.0,croix,shape
1,localizer,2,576,croix,,j,j,542.0,TRUE,image,0.0,1.0,croix,shape
1,localizer,2,577,,croix,j,j,475.0,TRUE,word,1.0,0.0,croix,shape
1,localizer,2,578,pince,,,,,TRUE,image,0.0,1.0,pince,object
1,localizer,2,579,,carre,,,,TRUE,word,,0.0,carre,shape
1,localizer,2,580,carre,,j,j,474.0,TRUE,image,0.0,1.0,carre,shape
1,localizer,2,581,,biche,,,,TRUE,word,1.0,0.0,biche,agent
1,localizer,2,582,cercle,,,,,TRUE,image,0.0,1.0,cercle,shape
1,localizer,2,583,,lampe,,,,TRUE,word,1.0,0.0,lampe,object
1,localizer,2,584,biche,,,,,TRUE,image,0.0,1.0,biche,agent
1,localizer,2,585,,lampe,,,,TRUE,word,1.0,0.0,lampe,object
1,localizer,2,586,losange,,,,,TRUE,image,0.0,1.0,losange,shape
1,localizer,2,587,,croix,,,,TRUE,word,1.0,0.0,croix,shape
1,localizer,2,588,carre,,,,,TRUE,image,0.0,1.0,carre,shape
1,localizer,2,589,,pince,,,,TRUE,word,1.004,0.0,pince,object
1,localizer,2,590,biche,,,,,TRUE,image,0.0,1.0,biche,agent
1,localizer,2,591,,lampe,,,,TRUE,word,1.0,0.0,lampe,object
1,localizer,2,592,losange,,,,,TRUE,image,0.0,1.0,losange,shape
1,localizer,2,593,,pince,,,,TRUE,word,1.0,0.0,pince,object
1,localizer,2,594,cercle,,,,,TRUE,image,0.0,1.0,cercle,shape
1,localizer,2,595,,croix,,,,TRUE,word,1.0,0.0,croix,shape
1,localizer,2,596,croix,,j,,,FALSE,image,0.0,1.0,croix,shape
1,localizer,2,597,,cercle,,,,TRUE,word,1.004,0.0,cercle,shape
1,localizer,2,598,cercle,,j,j,756.0,TRUE,image,0.0,1.0,cercle,shape
1,localizer,2,599,,biche,,,,TRUE,word,1.0,0.0,biche,agent
1,localizer,2,600,cercle,,,,,TRUE,image,0.0,1.0,cercle,shape
1,localizer,2,601,,lampe,,,,TRUE,word,1.0,0.0,lampe,object
1,localizer,2,602,pince,,,,,TRUE,image,0.0,1.0,pince,object
1,localizer,2,603,,croix,,,,TRUE,word,1.0,0.0,croix,shape
1,localizer,2,604,cercle,,,,,TRUE,image,0.0,1.0,cercle,shape
1,localizer,2,605,,biche,,,,TRUE,word,1.0,0.0,biche,agent
1,localizer,2,606,dinde,,,,,TRUE,image,0.0,1.004,dinde,agent
1,localizer,2,607,,losange,,,,TRUE,word,1.0,0.0,losange,shape
1,localizer,2,608,dinde,,,,,TRUE,image,0.0,1.0,dinde,agent
1,localizer,2,609,,pince,,,,TRUE,word,1.0,0.0,pince,object
1,localizer,2,610,biche,,,,,TRUE,image,0.0,1.0,biche,agent
1,localizer,2,611,,dinde,,,,TRUE,word,1.0,0.0,dinde,agent
1,localizer,2,612,pince,,,,,TRUE,image,0.0,1.0,pince,object
1,localizer,2,613,,lampe,,,,TRUE,word,1.0,0.0,lampe,object
1,localizer,2,614,croix,,,,,TRUE,image,0.0,1.004,croix,shape
1,localizer,2,615,,carre,,,,TRUE,word,1.0,0.0,carre,shape
1,localizer,2,616,dinde,,,,,TRUE,image,0.0,1.0,dinde,agent
1,localizer,2,617,,pince,,,,TRUE,word,1.0,0.0,pince,object
1,localizer,2,618,pince,,j,,,FALSE,image,0.0,1.0,pince,object
1,localizer,2,619,,biche,,,,TRUE,word,1.0,0.0,biche,agent
1,localizer,2,620,dinde,,,,,TRUE,image,0.0,1.004,dinde,agent
1,localizer,2,621,,pince,,,,TRUE,word,1.0,0.0,pince,object
1,localizer,2,622,biche,,,,,TRUE,image,0.0,1.0,biche,agent
1,localizer,2,623,,biche,j,j,490.0,TRUE,word,1.0,0.0,biche,agent
1,localizer,2,624,pince,,,,,TRUE,image,0.0,1.0,pince,object
1,localizer,2,625,,losange,,,,TRUE,word,1.0,0.0,losange,shape
1,localizer,2,626,carre,,,,,TRUE,image,0.0,1.0,carre,shape
1,localizer,2,627,,losange,,,,TRUE,word,,0.0,losange,shape
1,localizer,2,628,dinde,,,,,TRUE,image,0.0,1.004,dinde,agent
1,localizer,2,629,,cercle,,,,TRUE,word,1.0,0.0,cercle,shape
1,localizer,2,630,pince,,,,,TRUE,image,0.0,1.0,pince,object
1,localizer,2,631,,cercle,,,,TRUE,word,1.0,0.0,cercle,shape
1,localizer,2,632,cercle,,j,j,414.0,TRUE,image,0.0,1.0,cercle,shape
1,localizer,2,633,,croix,,,,TRUE,word,1.0,0.0,croix,shape
1,localizer,2,634,croix,,j,j,517.0,TRUE,image,0.0,1.0,croix,shape
1,localizer,2,635,,losange,,,,TRUE,word,1.0,0.0,losange,shape
1,localizer,2,636,cercle,,,,,TRUE,image,0.0,1.0,cercle,shape
1,localizer,2,637,,carre,,,,TRUE,word,1.0,0.0,carre,shape
1,localizer,2,638,biche,,,,,TRUE,image,0.0,1.0,biche,agent
1,localizer,2,639,,biche,j,,,FALSE,word,1.004,0.0,biche,agent
1,localizer,2,640,pince,,,j,0.0,FALSE,image,0.0,1.0,pince,object
1,localizer,2,641,,dinde,,,,TRUE,word,1.0,0.0,dinde,agent
1,localizer,2,642,cercle,,,,,TRUE,image,0.0,1.0,cercle,shape
1,localizer,2,643,,lampe,,,,TRUE,word,1.0,0.0,lampe,object
1,localizer,2,644,cercle,,,,,TRUE,image,0.0,1.0,cercle,shape
1,localizer,2,645,,pince,,,,TRUE,word,1.0,0.0,pince,object
1,localizer,2,646,biche,,,,,TRUE,image,0.0,1.0,biche,agent
1,localizer,2,647,,biche,j,j,548.0,TRUE,word,1.004,0.0,biche,agent
1,localizer,2,648,carre,,,,,TRUE,image,0.0,1.0,carre,shape
1,localizer,2,649,,carre,j,j,481.0,TRUE,word,1.0,0.0,carre,shape
1,localizer,2,650,croix,,,,,TRUE,image,0.0,1.0,croix,shape
1,localizer,2,651,,lampe,,,,TRUE,word,1.0,0.0,lampe,object
1,localizer,2,652,biche,,,,,TRUE,image,0.0,1.0,biche,agent
1,localizer,2,653,,lampe,,,,TRUE,word,1.0,0.0,lampe,object
1,localizer,2,654,losange,,,,,TRUE,image,0.0,1.0,losange,shape
1,localizer,2,655,,pince,,,,TRUE,word,1.0,0.0,pince,object
1,localizer,2,656,biche,,,,,TRUE,image,0.0,1.004,biche,agent
1,localizer,2,657,,lampe,,,,TRUE,word,1.0,0.0,lampe,object
1,localizer,2,658,lampe,,j,j,555.0,TRUE,image,0.0,1.0,lampe,object
1,localizer,2,659,,lampe,j,j,602.0,TRUE,word,1.0,0.0,lampe,object
1,localizer,2,660,cercle,,,,,TRUE,image,0.0,1.0,cercle,shape
1,localizer,2,661,,pince,,,,TRUE,word,1.0,0.0,pince,object
1,localizer,2,662,pince,,j,j,739.0,TRUE,image,0.0,1.004,pince,object
1,localizer,2,663,,losange,,,,TRUE,word,1.0,0.0,losange,shape
1,localizer,2,664,cercle,,,,,TRUE,image,0.0,1.0,cercle,shape
1,localizer,2,665,,cercle,j,j,752.0,TRUE,word,1.0,0.0,cercle,shape
1,localizer,2,666,lampe,,,,,TRUE,image,0.0,1.0,lampe,object
1,localizer,2,667,,cercle,,,,TRUE,word,1.0,0.0,cercle,shape
1,localizer,2,668,cercle,,j,j,378.0,TRUE,image,0.0,1.0,cercle,shape
1,localizer,2,669,,losange,,,,TRUE,word,1.0,0.0,losange,shape
1,localizer,2,670,losange,,j,j,350.0,TRUE,image,0.0,1.0,losange,shape
1,localizer,2,671,,pince,,,,TRUE,word,1.004,0.0,pince,object
1,localizer,2,672,losange,,,,,TRUE,image,0.0,1.0,losange,shape
1,localizer,2,673,,cercle,,,,TRUE,word,1.0,0.0,cercle,shape
1,localizer,2,674,cercle,,j,j,538.0,TRUE,image,0.0,1.0,cercle,shape
1,localizer,2,675,,lampe,,,,TRUE,word,1.0,0.0,lampe,object
1,localizer,2,676,croix,,,,,TRUE,image,0.0,,croix,shape
1,localizer,2,677,,lampe,,,,TRUE,word,1.0,0.0,lampe,object
1,localizer,2,678,cercle,,,,,TRUE,image,0.0,1.0,cercle,shape
1,localizer,2,679,,croix,,,,TRUE,word,1.0,0.0,croix,shape
1,localizer,2,680,croix,,j,j,477.0,TRUE,image,0.0,1.0,croix,shape
1,localizer,2,681,,cercle,,,,TRUE,word,1.004,0.0,cercle,shape
1,localizer,2,682,pince,,,,,TRUE,image,0.0,1.0,pince,object
1,localizer,2,683,,dinde,,,,TRUE,word,1.0,0.0,dinde,agent
1,localizer,2,684,dinde,,j,j,544.0,TRUE,image,0.0,1.0,dinde,agent
1,localizer,2,685,,dinde,j,j,657.0,TRUE,word,1.0,0.0,dinde,agent
1,localizer,2,686,lampe,,,,,TRUE,image,0.0,1.0,lampe,object
1,localizer,2,687,,cercle,,,,TRUE,word,1.0,0.0,cercle,shape
1,localizer,2,688,cercle,,j,j,494.0,TRUE,image,0.0,1.0,cercle,shape
1,localizer,2,689,,lampe,,,,TRUE,word,1.004,0.0,lampe,object
1,localizer,2,690,pince,,,,,TRUE,image,0.0,1.0,pince,object
1,localizer,2,691,,croix,,,,TRUE,word,1.0,0.0,croix,shape
1,localizer,2,692,pince,,,,,TRUE,image,0.0,1.0,pince,object
1,localizer,2,693,,cercle,,,,TRUE,word,1.0,0.0,cercle,shape
1,localizer,2,694,lampe,,,,,TRUE,image,0.0,1.0,lampe,object
1,localizer,2,695,,cercle,,,,TRUE,word,1.0,0.0,cercle,shape
1,localizer,2,696,croix,,,,,TRUE,image,0.0,1.0,croix,shape
1,localizer,2,697,,lampe,,,,TRUE,word,1.0,0.0,lampe,object
1,localizer,2,698,losange,,,,,TRUE,image,0.0,1.004,losange,shape
1,localizer,2,699,,dinde,,,,TRUE,word,1.0,0.0,dinde,agent
1,localizer,2,700,dinde,,j,j,736.0,TRUE,image,0.0,1.0,dinde,agent
1,localizer,2,701,,lampe,,,,TRUE,word,1.0,0.0,lampe,object
1,localizer,2,702,cercle,,,,,TRUE,image,0.0,1.0,cercle,shape
1,localizer,2,703,,croix,,,,TRUE,word,1.0,0.0,croix,shape
1,localizer,2,704,cercle,,,,,TRUE,image,0.0,1.004,cercle,shape
1,localizer,2,705,,carre,,,,TRUE,word,1.0,0.0,carre,shape
1,localizer,2,706,losange,,,,,TRUE,image,0.0,1.0,losange,shape
1,localizer,2,707,,carre,,,,TRUE,word,1.0,0.0,carre,shape
1,localizer,2,708,lampe,,,,,TRUE,image,0.0,1.0,lampe,object
1,localizer,2,709,,lampe,j,j,645.0,TRUE,word,1.0,0.0,lampe,object
1,localizer,2,710,biche,,,,,TRUE,image,0.0,1.0,biche,agent
1,localizer,2,711,,carre,,,,TRUE,word,1.0,0.0,carre,shape
1,localizer,2,712,dinde,,,,,TRUE,image,0.0,1.0,dinde,agent
1,localizer,2,713,,biche,,,,TRUE,word,1.004,0.0,biche,agent
1,localizer,2,714,croix,,,,,TRUE,image,0.0,1.0,croix,shape
1,localizer,2,715,,pince,,,,TRUE,word,1.0,0.0,pince,object
1,localizer,2,716,croix,,,,,TRUE,image,0.0,1.0,croix,shape
1,localizer,2,717,,pince,,,,TRUE,word,1.0,0.0,pince,object
1,localizer,2,718,pince,,j,j,589.0,TRUE,image,0.0,1.0,pince,object
1,localizer,2,719,,losange,,,,TRUE,word,1.0,0.0,losange,shape
1,localizer,2,720,losange,,j,j,455.0,TRUE,image,0.0,1.0,losange,shape
1,localizer,2,721,,lampe,,,,TRUE,word,1.004,0.0,lampe,object
1,localizer,2,722,cercle,,,,,TRUE,image,0.0,1.0,cercle,shape
1,localizer,2,723,,lampe,,,,TRUE,word,1.0,0.0,lampe,object
1,localizer,2,724,dinde,,,,,TRUE,image,0.0,,dinde,agent
1,localizer,2,725,,dinde,j,j,493.0,TRUE,word,1.0,0.0,dinde,agent
1,localizer,2,726,carre,,,,,TRUE,image,0.0,1.0,carre,shape
1,localizer,2,727,,croix,,,,TRUE,word,1.0,0.0,croix,shape
1,localizer,2,728,dinde,,,,,TRUE,image,0.0,1.0,dinde,agent
1,localizer,2,729,,losange,,,,TRUE,word,1.0,0.0,losange,shape
1,localizer,2,730,biche,,,,,TRUE,image,0.0,1.0,biche,agent
1,localizer,2,731,,pince,,,,TRUE,word,1.004,0.0,pince,object
1,localizer,2,732,carre,,,,,TRUE,image,0.0,1.0,carre,shape
1,localizer,2,733,,carre,j,j,582.0,TRUE,word,1.0,0.0,carre,shape
1,localizer,2,734,losange,,,,,TRUE,image,0.0,1.0,losange,shape
1,localizer,2,735,,cercle,,,,TRUE,word,1.0,0.0,cercle,shape
1,localizer,2,736,dinde,,,,,TRUE,image,0.0,1.0,dinde,agent
1,localizer,2,737,,pince,,,,TRUE,word,1.0,0.0,pince,object
1,localizer,2,738,losange,,,,,TRUE,image,0.0,1.0,losange,shape
1,localizer,2,739,,biche,,,,TRUE,word,1.0,0.0,biche,agent
1,localizer,2,740,biche,,j,j,697.0,TRUE,image,0.0,1.004,biche,agent
1,localizer,2,741,,croix,,,,TRUE,word,1.0,0.0,croix,shape
1,localizer,2,742,croix,,j,j,551.0,TRUE,image,0.0,1.0,croix,shape
1,localizer,2,743,,losange,,,,TRUE,word,1.0,0.0,losange,shape
1,localizer,2,744,croix,,,,,TRUE,image,0.0,1.0,croix,shape
1,localizer,2,745,,losange,,,,TRUE,word,1.0,0.0,losange,shape
1,localizer,2,746,lampe,,,,,TRUE,image,0.0,1.0,lampe,object
1,localizer,2,747,,biche,,,,TRUE,word,1.0,0.0,biche,agent
1,localizer,2,748,croix,,,,,TRUE,image,0.0,1.004,croix,shape
1,localizer,2,749,,carre,,,,TRUE,word,1.0,0.0,carre,shape
1,localizer,2,750,dinde,,,,,TRUE,image,0.0,1.0,dinde,agent
1,localizer,2,751,,biche,,,,TRUE,word,1.0,0.0,biche,agent
1,localizer,2,752,biche,,j,j,561.0,TRUE,image,0.0,1.0,biche,agent
1,localizer,2,753,,losange,,,,TRUE,word,1.0,0.0,losange,shape
1,localizer,2,754,pince,,,,,TRUE,image,0.0,1.0,pince,object
1,localizer,2,755,,biche,,,,TRUE,word,1.0,0.0,biche,agent
1,localizer,2,756,losange,,,j,597.0,FALSE,image,0.0,1.004,losange,shape
1,localizer,2,757,,dinde,,,,TRUE,word,1.0,0.0,dinde,agent
1,localizer,2,758,carre,,,,,TRUE,image,0.0,1.0,carre,shape
1,localizer,2,759,,pince,,,,TRUE,word,1.0,0.0,pince,object
1,localizer,2,760,pince,,j,j,776.0,TRUE,image,0.0,1.0,pince,object
1,localizer,2,761,,carre,,,,TRUE,word,1.0,0.0,carre,shape
1,localizer,2,762,dinde,,,,,TRUE,image,0.0,1.0,dinde,agent
1,localizer,2,763,,cercle,,,,TRUE,word,1.0,0.0,cercle,shape
1,localizer,2,764,losange,,,,,TRUE,image,0.0,1.0,losange,shape
1,localizer,2,765,,dinde,,,,TRUE,word,1.004,0.0,dinde,agent
1,localizer,2,766,dinde,,j,j,520.0,TRUE,image,0.0,1.0,dinde,agent
1,localizer,2,767,,biche,,,,TRUE,word,1.0,0.0,biche,agent
1,localizer,2,768,biche,,j,,,FALSE,image,0.0,1.0,biche,agent
1,localizer,2,769,,pince,,j,251.0,FALSE,word,1.0,0.0,pince,object
1,localizer,2,770,losange,,,,,TRUE,image,0.0,1.0,losange,shape
1,localizer,2,771,,lampe,,,,TRUE,word,1.004,0.0,lampe,object
1,localizer,2,772,losange,,,,,TRUE,image,0.0,,losange,shape
1,localizer,2,773,,croix,,,,TRUE,word,1.0,0.0,croix,shape
1,localizer,2,774,dinde,,,,,TRUE,image,0.0,1.0,dinde,agent
1,localizer,2,775,,carre,,,,TRUE,word,1.0,0.0,carre,shape
1,localizer,2,776,lampe,,,,,TRUE,image,0.0,1.0,lampe,object
1,localizer,2,777,,carre,,,,TRUE,word,1.0,0.0,carre,shape
1,localizer,2,778,lampe,,,,,TRUE,image,0.0,1.0,lampe,object
1,localizer,2,779,,losange,,,,TRUE,word,1.004,0.0,losange,shape
1,localizer,2,780,croix,,,,,TRUE,image,0.0,1.0,croix,shape
1,localizer,2,781,,losange,,,,TRUE,word,1.0,0.0,losange,shape
1,localizer,2,782,losange,,j,j,767.0,TRUE,image,0.0,1.0,losange,shape
1,localizer,2,783,,lampe,,,,TRUE,word,1.0,0.0,lampe,object
1,localizer,2,784,losange,,,,,TRUE,image,0.0,1.0,losange,shape
1,localizer,2,785,,losange,j,j,592.0,TRUE,word,1.0,0.0,losange,shape
1,localizer,2,786,lampe,,,,,TRUE,image,0.0,1.0,lampe,object
1,localizer,2,787,,dinde,,,,TRUE,word,1.0,0.0,dinde,agent
1,localizer,2,788,cercle,,,,,TRUE,image,0.0,1.004,cercle,shape
1,localizer,2,789,,biche,,,,TRUE,word,1.0,0.0,biche,agent
1,localizer,2,790,croix,,,,,TRUE,image,0.0,1.0,croix,shape
1,localizer,2,791,,biche,,,,TRUE,word,1.0,0.0,biche,agent
1,localizer,2,792,losange,,,,,TRUE,image,0.0,1.0,losange,shape
1,localizer,2,793,,cercle,,,,TRUE,word,1.0,0.0,cercle,shape
1,localizer,2,794,dinde,,,,,TRUE,image,0.0,1.0,dinde,agent
1,localizer,2,795,,losange,,,,TRUE,word,1.0,0.0,losange,shape
1,localizer,2,796,pince,,,,,TRUE,image,0.0,1.0,pince,object
1,localizer,2,797,,cercle,,,,TRUE,word,1.004,0.0,cercle,shape
1,localizer,2,798,croix,,,,,TRUE,image,0.0,1.0,croix,shape
1,localizer,2,799,,biche,,,,TRUE,word,1.0,0.0,biche,agent
1,localizer,2,800,losange,,,,,TRUE,image,0.0,1.0,losange,shape
1,localizer,2,801,,pince,,,,TRUE,word,1.0,0.0,pince,object
1,localizer,2,802,lampe,,,,,TRUE,image,0.0,1.0,lampe,object
1,localizer,2,803,,cercle,,,,TRUE,word,1.0,0.0,cercle,shape
1,localizer,2,804,lampe,,,,,TRUE,image,0.0,1.0,lampe,object
1,localizer,2,805,,lampe,j,j,568.0,TRUE,word,1.004,0.0,lampe,object
1,localizer,2,806,dinde,,,,,TRUE,image,0.0,1.0,dinde,agent
1,localizer,2,807,,biche,,,,TRUE,word,1.0,0.0,biche,agent
1,localizer,2,808,dinde,,,,,TRUE,image,0.0,1.0,dinde,agent
1,localizer,2,809,,croix,,,,TRUE,word,1.0,0.0,croix,shape
1,localizer,2,810,losange,,,,,TRUE,image,0.0,1.0,losange,shape
1,localizer,2,811,,losange,j,j,749.0,TRUE,word,1.0,0.0,losange,shape
1,localizer,2,812,losange,,j,j,425.0,TRUE,image,0.0,1.0,losange,shape
1,localizer,2,813,,croix,,,,TRUE,word,1.0,0.0,croix,shape
1,localizer,2,814,losange,,,,,TRUE,image,0.0,1.0,losange,shape
1,localizer,2,815,,losange,j,j,563.0,TRUE,word,1.004,0.0,losange,shape
1,localizer,2,816,dinde,,,,,TRUE,image,0.0,1.0,dinde,agent
1,localizer,2,817,,biche,,,,TRUE,word,1.0,0.0,biche,agent
1,localizer,2,818,croix,,,,,TRUE,image,0.0,1.0,croix,shape
1,localizer,2,819,,dinde,,,,TRUE,word,1.0,0.0,dinde,agent
1,localizer,2,820,carre,,,,,TRUE,image,0.0,1.0,carre,shape
1,localizer,2,821,,cercle,,,,TRUE,word,,0.0,cercle,shape
1,localizer,2,822,croix,,,,,TRUE,image,0.0,1.0,croix,shape
1,localizer,2,823,,losange,,,,TRUE,word,1.004,0.0,losange,shape
1,localizer,2,824,losange,,j,j,511.0,TRUE,image,0.0,1.0,losange,shape
1,localizer,2,825,,cercle,,,,TRUE,word,1.0,0.0,cercle,shape
1,localizer,2,826,losange,,,,,TRUE,image,0.0,1.0,losange,shape
1,localizer,2,827,,pince,,,,TRUE,word,1.0,0.0,pince,object
1,localizer,2,828,carre,,,,,TRUE,image,0.0,1.0,carre,shape
1,localizer,2,829,,lampe,,,,TRUE,word,1.0,0.0,lampe,object
1,localizer,2,830,dinde,,,,,TRUE,image,0.0,1.0,dinde,agent
1,localizer,2,831,,cercle,,,,TRUE,word,1.0,0.0,cercle,shape
1,localizer,2,832,pince,,,,,TRUE,image,0.0,1.004,pince,object
1,localizer,2,833,,croix,,,,TRUE,word,1.0,0.0,croix,shape
1,localizer,2,834,croix,,j,j,553.0,TRUE,image,0.0,1.0,croix,shape
1,localizer,2,835,,biche,,,,TRUE,word,1.0,0.0,biche,agent
1,localizer,2,836,lampe,,,,,TRUE,image,0.0,1.0,lampe,object
1,localizer,2,837,,pince,,,,TRUE,word,1.0,0.0,pince,object
1,localizer,2,838,lampe,,,,,TRUE,image,0.0,1.0,lampe,object
1,localizer,2,839,,carre,,,,TRUE,word,1.0,0.0,carre,shape
1,localizer,2,840,biche,,,,,TRUE,image,0.0,1.0,biche,agent
1,localizer,2,841,,cercle,,,,TRUE,word,1.004,0.0,cercle,shape
1,localizer,2,842,lampe,,,,,TRUE,image,0.0,1.0,lampe,object
1,localizer,2,843,,dinde,,,,TRUE,word,1.0,0.0,dinde,agent
1,localizer,2,844,lampe,,,,,TRUE,image,0.0,1.0,lampe,object
1,localizer,2,845,,biche,,,,TRUE,word,1.0,0.0,biche,agent
1,localizer,2,846,cercle,,,,,TRUE,image,0.0,1.0,cercle,shape
1,localizer,2,847,,dinde,,,,TRUE,word,1.0,0.0,dinde,agent
1,localizer,2,848,pince,,,,,TRUE,image,0.0,1.0,pince,object
1,localizer,2,849,,cercle,,,,TRUE,word,,0.0,cercle,shape
1,localizer,2,850,pince,,,,,TRUE,image,0.0,0.992,pince,object
1,localizer,2,851,,carre,,,,TRUE,word,1.0,0.0,carre,shape
1,localizer,2,852,biche,,,,,TRUE,image,0.0,1.0,biche,agent
1,localizer,2,853,,carre,,,,TRUE,word,1.0,0.0,carre,shape
1,localizer,2,854,carre,,j,j,594.0,TRUE,image,0.0,1.0,carre,shape
1,localizer,2,855,,dinde,,,,TRUE,word,1.004,0.0,dinde,agent
1,localizer,2,856,croix,,,,,TRUE,image,0.0,1.0,croix,shape
1,localizer,2,857,,pince,,,,TRUE,word,1.0,0.0,pince,object
1,localizer,2,858,pince,,j,j,448.0,TRUE,image,0.0,1.0,pince,object
1,localizer,2,859,,carre,,,,TRUE,word,1.0,0.0,carre,shape
1,localizer,2,860,cercle,,,,,TRUE,image,0.0,1.0,cercle,shape
1,localizer,2,861,,pince,,,,TRUE,word,1.0,0.0,pince,object
1,localizer,2,862,cercle,,,,,TRUE,image,0.0,1.0,cercle,shape
1,localizer,2,863,,carre,,,,TRUE,word,1.004,0.0,carre,shape
1,localizer,2,864,dinde,,,,,TRUE,image,0.0,1.0,dinde,agent
1,localizer,2,865,,losange,,,,TRUE,word,1.0,0.0,losange,shape
1,localizer,2,866,pince,,,,,TRUE,image,0.0,1.0,pince,object
1,localizer,2,867,,lampe,,,,TRUE,word,1.0,0.0,lampe,object
1,localizer,2,868,dinde,,,,,TRUE,image,0.0,,dinde,agent
1,localizer,2,869,,dinde,j,j,640.0,TRUE,word,1.0,0.0,dinde,agent
1,localizer,2,870,dinde,,j,j,754.0,TRUE,image,0.0,1.0,dinde,agent
1,localizer,2,871,,pince,,,,TRUE,word,1.0,0.0,pince,object
1,localizer,2,872,biche,,,,,TRUE,image,0.0,1.004,biche,agent
1,localizer,2,873,,biche,j,j,541.0,TRUE,word,1.0,0.0,biche,agent
1,localizer,2,874,biche,,j,j,695.0,TRUE,image,0.0,1.0,biche,agent
1,localizer,2,875,,dinde,,,,TRUE,word,1.0,0.0,dinde,agent
1,localizer,2,876,pince,,,,,TRUE,image,0.0,1.0,pince,object
1,localizer,2,877,,carre,,,,TRUE,word,1.0,0.0,carre,shape
1,localizer,2,878,croix,,,,,TRUE,image,0.0,1.0,croix,shape
1,localizer,2,879,,biche,,,,TRUE,word,1.0,0.0,biche,agent
1,localizer,2,880,pince,,,,,TRUE,image,0.0,1.004,pince,object
1,localizer,2,881,,lampe,,,,TRUE,word,1.0,0.0,lampe,object
1,localizer,2,882,losange,,,,,TRUE,image,0.0,1.0,losange,shape
1,localizer,2,883,,losange,j,j,509.0,TRUE,word,1.0,0.0,losange,shape
1,localizer,2,884,carre,,,,,TRUE,image,0.0,1.0,carre,shape
1,localizer,2,885,,lampe,,,,TRUE,word,1.0,0.0,lampe,object
1,localizer,2,886,dinde,,,,,TRUE,image,0.0,1.0,dinde,agent
1,localizer,2,887,,carre,,,,TRUE,word,1.0,0.0,carre,shape
1,localizer,2,888,biche,,,,,TRUE,image,0.0,1.0,biche,agent
1,localizer,2,889,,cercle,,,,TRUE,word,1.004,0.0,cercle,shape
1,localizer,2,890,losange,,,,,TRUE,image,0.0,1.0,losange,shape
1,localizer,2,891,,carre,,,,TRUE,word,1.0,0.0,carre,shape
1,localizer,2,892,pince,,,,,TRUE,image,0.0,1.0,pince,object
1,localizer,2,893,,carre,,,,TRUE,word,1.0,0.0,carre,shape
1,localizer,2,894,lampe,,,,,TRUE,image,0.0,1.0,lampe,object
1,localizer,2,895,,dinde,,,,TRUE,word,1.0,0.0,dinde,agent
1,localizer,2,896,lampe,,,,,TRUE,image,0.0,1.0,lampe,object
1,localizer,2,897,,croix,,,,TRUE,word,1.0,0.0,croix,shape
1,localizer,2,898,croix,,j,j,472.0,TRUE,image,0.0,1.0,croix,shape
1,localizer,2,899,,dinde,,,,TRUE,word,1.004,0.0,dinde,agent
1,localizer,2,900,carre,,,,,TRUE,image,0.0,1.0,carre,shape
1,localizer,2,901,,cercle,,,,TRUE,word,1.0,0.0,cercle,shape
1,localizer,2,902,cercle,,j,j,651.0,TRUE,image,0.0,1.0,cercle,shape
1,localizer,2,903,,biche,,,,TRUE,word,1.0,0.0,biche,agent
1,localizer,2,904,lampe,,,,,TRUE,image,0.0,1.0,lampe,object
1,localizer,2,905,,dinde,,,,TRUE,word,1.0,0.0,dinde,agent
1,localizer,2,906,carre,,,,,TRUE,image,0.0,1.0,carre,shape
1,localizer,2,907,,losange,,,,TRUE,word,1.0,0.0,losange,shape
1,localizer,2,908,pince,,,,,TRUE,image,0.0,1.004,pince,object
1,localizer,2,909,,croix,,,,TRUE,word,1.0,0.0,croix,shape
1,localizer,2,910,dinde,,,,,TRUE,image,0.0,1.0,dinde,agent
1,localizer,2,911,,losange,,,,TRUE,word,1.0,0.0,losange,shape
1,localizer,2,912,lampe,,,,,TRUE,image,0.0,,lampe,object
1,localizer,2,913,,dinde,,,,TRUE,word,1.0,0.0,dinde,agent
1,localizer,2,914,cercle,,,,,TRUE,image,0.0,1.0,cercle,shape
1,localizer,2,915,,lampe,,,,TRUE,word,1.0,0.0,lampe,object
1,localizer,2,916,cercle,,,,,TRUE,image,0.0,1.004,cercle,shape
1,localizer,2,917,,dinde,,,,TRUE,word,1.0,0.0,dinde,agent
1,localizer,2,918,croix,,,,,TRUE,image,0.0,1.0,croix,shape
1,localizer,2,919,,lampe,,,,TRUE,word,1.0,0.0,lampe,object
1,localizer,2,920,carre,,,,,TRUE,image,0.0,1.0,carre,shape
1,localizer,2,921,,cercle,,,,TRUE,word,1.0,0.0,cercle,shape
1,localizer,2,922,dinde,,,,,TRUE,image,0.0,1.0,dinde,agent
1,localizer,2,923,,croix,,,,TRUE,word,1.0,0.0,croix,shape
1,localizer,2,924,losange,,,,,TRUE,image,0.0,1.004,losange,shape
1,localizer,2,925,,croix,,,,TRUE,word,1.0,0.0,croix,shape
1,localizer,2,926,croix,,j,j,517.0,TRUE,image,0.0,1.0,croix,shape
1,localizer,2,927,,pince,,,,TRUE,word,1.0,0.0,pince,object
1,localizer,2,928,lampe,,,,,TRUE,image,0.0,1.0,lampe,object
1,localizer,2,929,,biche,,,,TRUE,word,1.0,0.0,biche,agent
1,localizer,2,930,dinde,,,,,TRUE,image,0.0,1.0,dinde,agent
1,localizer,2,931,,losange,,,,TRUE,word,1.0,0.0,losange,shape
1,localizer,2,932,losange,,j,j,484.0,TRUE,image,0.0,1.0,losange,shape
1,localizer,2,933,,carre,,,,TRUE,word,1.004,0.0,carre,shape
1,localizer,2,934,losange,,,,,TRUE,image,0.0,1.0,losange,shape
1,localizer,2,935,,cercle,,,,TRUE,word,1.0,0.0,cercle,shape
1,localizer,2,936,biche,,,,,TRUE,image,0.0,1.0,biche,agent
1,localizer,2,937,,lampe,,,,TRUE,word,1.0,0.0,lampe,object
1,localizer,2,938,carre,,,,,TRUE,image,0.0,1.0,carre,shape
1,localizer,2,939,,carre,j,,,FALSE,word,1.004,0.0,carre,shape
1,localizer,2,940,pince,,,,,TRUE,image,0.0,1.0,pince,object
1,localizer,2,941,,pince,j,j,503.0,TRUE,word,1.0,0.0,pince,object
1,localizer,2,942,pince,,j,j,519.0,TRUE,image,0.0,1.0,pince,object
1,localizer,2,943,,croix,,,,TRUE,word,1.0,0.0,croix,shape
1,localizer,2,944,dinde,,,,,TRUE,image,0.0,1.0,dinde,agent
1,localizer,2,945,,croix,,,,TRUE,word,1.0,0.0,croix,shape
1,localizer,2,946,losange,,,,,TRUE,image,0.0,1.0,losange,shape
1,localizer,2,947,,losange,j,,,FALSE,word,1.004,0.0,losange,shape
1,localizer,2,948,cercle,,,,,TRUE,image,0.0,1.0,cercle,shape
1,localizer,2,949,,pince,,,,TRUE,word,1.0,0.0,pince,object
1,localizer,2,950,cercle,,,,,TRUE,image,0.0,1.0,cercle,shape
1,localizer,2,951,,lampe,,,,TRUE,word,1.0,0.0,lampe,object
1,localizer,2,952,croix,,,,,TRUE,image,0.0,1.0,croix,shape
1,localizer,2,953,,losange,,,,TRUE,word,1.0,0.0,losange,shape
1,localizer,2,954,lampe,,,,,TRUE,image,0.0,1.0,lampe,object
1,localizer,2,955,,carre,,,,TRUE,word,1.0,0.0,carre,shape
1,localizer,2,956,croix,,,,,TRUE,image,0.0,1.004,croix,shape
1,localizer,2,957,,carre,,,,TRUE,word,1.0,0.0,carre,shape
1,localizer,2,958,biche,,,,,TRUE,image,0.0,1.0,biche,agent
1,localizer,2,959,,losange,,,,TRUE,word,1.0,0.0,losange,shape
1,localizer,2,960,carre,,,,,TRUE,image,0.0,,carre,shape