subject_id,task,trial_block,trial_number,shape1,label1,correct_key,participant_response,reaction_time,participant_correct,event_name,image,word,stimulus
1,localizer,1,1,,carré,,,,True,word,1.0,0.0,carré
1,localizer,1,2,croix,,,,,True,image,0.0,1.0,croix
1,localizer,1,3,,dinde,,,,True,word,1.0,0.0,dinde
1,localizer,1,4,biche,,,,,True,image,0.0,1.004,biche
1,localizer,1,5,,cercle,,,,True,word,1.0,0.0,cercle
1,localizer,1,6,dinde,,,,,True,image,0.0,1.0,dinde
1,localizer,1,7,,losenge,,,,True,word,1.0,0.0,losenge
1,localizer,1,8,croix,,,,,True,image,0.0,1.0,croix
1,localizer,1,9,,croix,j,j,498.0,True,word,1.0,0.0,croix
1,localizer,1,10,pince,,,,,True,image,0.0,1.0,pince
1,localizer,1,11,,biche,,,,True,word,1.004,0.0,biche
1,localizer,1,12,pince,,,,,True,image,0.0,1.0,pince
1,localizer,1,13,,pince,j,j,618.0,True,word,1.0,0.0,pince
1,localizer,1,14,dinde,,,,,True,image,0.0,1.0,dinde
1,localizer,1,15,,croix,,,,True,word,1.0,0.0,croix
1,localizer,1,16,croix,,j,j,456.0,True,image,0.0,1.0,croix
1,localizer,1,17,,pince,,,,True,word,1.0,0.0,pince
1,localizer,1,18,pince,,j,j,472.0,True,image,0.0,1.0,pince
1,localizer,1,19,,losenge,,,,True,word,1.004,0.0,losenge
1,localizer,1,20,carré,,,,,True,image,0.0,1.0,carré
1,localizer,1,21,,dinde,,,,True,word,1.0,0.0,dinde
1,localizer,1,22,pince,,,,,True,image,0.0,1.0,pince
1,localizer,1,23,,lampe,,,,True,word,1.0,0.0,lampe
1,localizer,1,24,cercle,,,,,True,image,0.0,1.0,cercle
1,localizer,1,25,,biche,,,,True,word,1.0,0.0,biche
1,localizer,1,26,cercle,,,,,True,image,0.0,1.0,cercle
1,localizer,1,27,,carré,,,,True,word,,0.0,carré
1,localizer,1,28,biche,,,,,True,image,0.0,1.0,biche
1,localizer,1,29,,dinde,,,,True,word,1.0,0.0,dinde
1,localizer,1,30,carré,,,,,True,image,0.0,1.0,carré
1,localizer,1,31,,biche,,,,True,word,1.0,0.0,biche
1,localizer,1,32,carré,,,,,True,image,0.0,1.0,carré
1,localizer,1,33,,losenge,,,,True,word,1.0,0.0,losenge
1,localizer,1,34,croix,,,,,True,image,0.0,1.0,croix
1,localizer,1,35,,biche,,,,True,word,1.0,0.0,biche
1,localizer,1,36,lampe,,,,,True,image,0.0,1.0,lampe
1,localizer,1,37,,croix,,,,True,word,1.0,0.0,croix
1,localizer,1,38,cercle,,,,,True,image,0.0,1.004,cercle
1,localizer,1,39,,croix,,,,True,word,1.0,0.0,croix
1,localizer,1,40,cercle,,,,,True,image,0.0,1.0,cercle
1,localizer,1,41,,dinde,,,,True,word,1.0,0.0,dinde
1,localizer,1,42,croix,,,,,True,image,0.0,1.0,croix
1,localizer,1,43,,cercle,,,,True,word,1.0,0.0,cercle
1,localizer,1,44,lampe,,,,,True,image,0.0,1.004,lampe
1,localizer,1,45,,pince,,,,True,word,1.0,0.0,pince
1,localizer,1,46,losenge,,,,,True,image,0.0,1.0,losenge
1,localizer,1,47,,pince,,,,True,word,1.0,0.0,pince
1,localizer,1,48,pince,,j,j,554.0,True,image,0.0,1.0,pince
1,localizer,1,49,,croix,,,,True,word,1.0,0.0,croix
1,localizer,1,50,carré,,,,,True,image,0.0,1.0,carré
1,localizer,1,51,,carré,j,j,600.0,True,word,1.0,0.0,carré
1,localizer,1,52,lampe,,,,,True,image,0.0,1.004,lampe
1,localizer,1,53,,lampe,j,j,492.0,True,word,1.0,0.0,lampe
1,localizer,1,54,dinde,,,,,True,image,0.0,1.0,dinde
1,localizer,1,55,,biche,,,,True,word,1.0,0.0,biche
1,localizer,1,56,croix,,,,,True,image,0.0,1.0,croix
1,localizer,1,57,,pince,,,,True,word,1.0,0.0,pince
1,localizer,1,58,losenge,,,,,True,image,0.0,1.0,losenge
1,localizer,1,59,,carré,,,,True,word,1.0,0.0,carré
1,localizer,1,60,carré,,j,j,476.0,True,image,0.0,1.0,carré
1,localizer,1,61,,carré,j,j,624.0,True,word,1.0,0.0,carré
1,localizer,1,62,croix,,,,,True,image,0.0,1.0,croix
1,localizer,1,63,,croix,j,j,529.0,True,word,1.004,0.0,croix
1,localizer,1,64,losenge,,,,,True,image,0.0,1.0,losenge
1,localizer,1,65,,croix,,,,True,word,1.0,0.0,croix
1,localizer,1,66,biche,,,,,True,image,0.0,1.0,biche
1,localizer,1,67,,losenge,,,,True,word,1.0,0.0,losenge
1,localizer,1,68,carré,,,,,True,image,0.0,1.0,carré
1,localizer,1,69,,pince,,,,True,word,1.0,0.0,pince
1,localizer,1,70,carré,,,,,True,image,0.0,1.0,carré
1,localizer,1,71,,carré,j,j,453.0,True,word,1.004,0.0,carré
1,localizer,1,72,carré,,j,j,429.0,True,image,0.0,1.0,carré
1,localizer,1,73,,lampe,,,,True,word,1.0,0.0,lampe
1,localizer,1,74,dinde,,,,,True,image,0.0,1.0,dinde
1,localizer,1,75,,pince,,,,True,word,1.0,0.0,pince
1,localizer,1,76,dinde,,,,,True,image,0.0,,dinde
1,localizer,1,77,,pince,,,,True,word,1.0,0.0,pince
1,localizer,1,78,losenge,,,,,True,image,0.0,1.0,losenge
1,localizer,1,79,,pince,,,,True,word,1.0,0.0,pince
1,localizer,1,80,biche,,,,,True,image,0.0,1.004,biche
1,localizer,1,81,,lampe,,,,True,word,1.0,0.0,lampe
1,localizer,1,82,cercle,,,,,True,image,0.0,1.0,cercle
1,localizer,1,83,,croix,,,,True,word,1.0,0.0,croix
1,localizer,1,84,carré,,,,,True,image,0.0,1.0,carré
1,localizer,1,85,,carré,j,j,485.0,True,word,1.0,0.0,carré
1,localizer,1,86,lampe,,,,,True,image,0.0,1.004,lampe
1,localizer,1,87,,dinde,,,,True,word,1.0,0.0,dinde
1,localizer,1,88,pince,,,,,True,image,0.0,1.0,pince
1,localizer,1,89,,cercle,,,,True,word,1.0,0.0,cercle
1,localizer,1,90,carré,,,,,True,image,0.0,1.0,carré
1,localizer,1,91,,losenge,,,,True,word,1.0,0.0,losenge
1,localizer,1,92,carré,,,,,True,image,0.0,1.0,carré
1,localizer,1,93,,croix,,,,True,word,1.0,0.0,croix
1,localizer,1,94,cercle,,,,,True,image,0.0,1.004,cercle
1,localizer,1,95,,cercle,j,j,575.0,True,word,1.0,0.0,cercle
1,localizer,1,96,losenge,,,,,True,image,0.0,1.0,losenge
1,localizer,1,97,,carré,,,,True,word,1.0,0.0,carré
1,localizer,1,98,cercle,,,,,True,image,0.0,1.0,cercle
1,localizer,1,99,,dinde,,,,True,word,1.0,0.0,dinde
1,localizer,1,100,lampe,,,,,True,image,0.0,1.0,lampe
1,localizer,1,101,,lampe,j,j,685.0,True,word,1.0,0.0,lampe
1,localizer,1,102,biche,,,,,True,image,0.0,1.0,biche
1,localizer,1,103,,losenge,,,,True,word,1.0,0.0,losenge
1,localizer,1,104,lampe,,,,,True,image,0.0,1.0,lampe
1,localizer,1,105,,cercle,,,,True,word,1.004,0.0,cercle
1,localizer,1,106,lampe,,,,,True,image,0.0,1.0,lampe
1,localizer,1,107,,dinde,,,,True,word,1.0,0.0,dinde
1,localizer,1,108,dinde,,j,,,False,image,0.0,1.0,dinde
1,localizer,1,109,,cercle,,,,True,word,1.0,0.0,cercle
1,localizer,1,110,pince,,,,,True,image,0.0,1.0,pince
1,localizer,1,111,,carré,,,,True,word,1.0,0.0,carré
1,localizer,1,112,biche,,,,,True,image,0.0,1.0,biche
1,localizer,1,113,,dinde,,,,True,word,1.004,0.0,dinde
1,localizer,1,114,carré,,,,,True,image,0.0,1.0,carré
1,localizer,1,115,,losenge,,,,True,word,1.0,0.0,losenge
1,localizer,1,116,losenge,,j,j,497.0,True,image,0.0,1.0,losenge
1,localizer,1,117,,croix,,,,True,word,1.0,0.0,croix
1,localizer,1,118,cercle,,,,,True,image,0.0,1.0,cercle
1,localizer,1,119,,croix,,j,467.0,False,word,1.0,0.0,croix
1,localizer,1,120,cercle,,,,,True,image,0.0,1.0,cercle
1,localizer,1,121,,biche,,,,True,word,1.0,0.0,biche
1,localizer,1,122,carré,,,,,True,image,0.0,1.004,carré
1,localizer,1,123,,losenge,,,,True,word,1.0,0.0,losenge
1,localizer,1,124,losenge,,j,j,588.0,True,image,0.0,,losenge
1,localizer,1,125,,dinde,,,,True,word,1.0,0.0,dinde
1,localizer,1,126,cercle,,,,,True,image,0.0,1.0,cercle
1,localizer,1,127,,croix,,,,True,word,1.0,0.0,croix
1,localizer,1,128,cercle,,,,,True,image,0.0,1.004,cercle
1,localizer,1,129,,biche,,,,True,word,1.0,0.0,biche
1,localizer,1,130,lampe,,,,,True,image,0.0,1.0,lampe
1,localizer,1,131,,cercle,,,,True,word,1.0,0.0,cercle
1,localizer,1,132,carré,,,,,True,image,0.0,1.0,carré
1,localizer,1,133,,lampe,,,,True,word,1.0,0.0,lampe
1,localizer,1,134,pince,,,,,True,image,0.0,1.0,pince
1,localizer,1,135,,carré,,,,True,word,1.0,0.0,carré
1,localizer,1,136,losenge,,,,,True,image,0.0,1.004,losenge
1,localizer,1,137,,carré,,,,True,word,1.0,0.0,carré
1,localizer,1,138,carré,,j,j,442.0,True,image,0.0,1.0,carré
1,localizer,1,139,,cercle,,,,True,word,1.0,0.0,cercle
1,localizer,1,140,cercle,,j,j,475.0,True,image,0.0,1.0,cercle
1,localizer,1,141,,lampe,,,,True,word,1.0,0.0,lampe
1,localizer,1,142,dinde,,,,,True,image,0.0,1.0,dinde
1,localizer,1,143,,pince,,,,True,word,1.0,0.0,pince
1,localizer,1,144,dinde,,,,,True,image,0.0,1.0,dinde
1,localizer,1,145,,croix,,,,True,word,1.0,0.0,croix
1,localizer,1,146,dinde,,,,,True,image,0.0,1.0,dinde
1,localizer,1,147,,losenge,,,,True,word,1.004,0.0,losenge
1,localizer,1,148,dinde,,,,,True,image,0.0,1.0,dinde
1,localizer,1,149,,dinde,j,j,563.0,True,word,1.0,0.0,dinde
1,localizer,1,150,lampe,,,,,True,image,0.0,1.0,lampe
1,localizer,1,151,,croix,,,,True,word,1.0,0.0,croix
1,localizer,1,152,lampe,,,,,True,image,0.0,1.0,lampe
1,localizer,1,153,,carré,,,,True,word,1.0,0.0,carré
1,localizer,1,154,lampe,,,,,True,image,0.0,1.0,lampe
1,localizer,1,155,,pince,,,,True,word,1.004,0.0,pince
1,localizer,1,156,biche,,,,,True,image,0.0,1.0,biche
1,localizer,1,157,,carré,,,,True,word,1.0,0.0,carré
1,localizer,1,158,cercle,,,,,True,image,0.0,1.0,cercle
1,localizer,1,159,,biche,,,,True,word,1.0,0.0,biche
1,localizer,1,160,cercle,,,,,True,image,0.0,1.0,cercle
1,localizer,1,161,,cercle,j,,,False,word,1.0,0.0,cercle
1,localizer,1,162,croix,,,,,True,image,0.0,1.0,croix
1,localizer,1,163,,dinde,,,,True,word,1.004,0.0,dinde
1,localizer,1,164,cercle,,,,,True,image,0.0,1.0,cercle
1,localizer,1,165,,pince,,,,True,word,1.0,0.0,pince
1,localizer,1,166,pince,,j,j,473.0,True,image,0.0,1.0,pince
1,localizer,1,167,,lampe,,,,True,word,1.0,0.0,lampe
1,localizer,1,168,losenge,,,,,True,image,0.0,1.0,losenge
1,localizer,1,169,,croix,,,,True,word,1.0,0.0,croix
1,localizer,1,170,pince,,,,,True,image,0.0,1.0,pince
1,localizer,1,171,,losenge,,,,True,word,1.0,0.0,losenge
1,localizer,1,172,lampe,,,,,True,image,0.0,,lampe
1,localizer,1,173,,dinde,,,,True,word,1.0,0.0,dinde
1,localizer,1,174,biche,,,,,True,image,0.0,1.0,biche
1,localizer,1,175,,losenge,,,,True,word,1.0,0.0,losenge
1,localizer,1,176,croix,,,,,True,image,0.0,1.0,croix
1,localizer,1,177,,carré,,,,True,word,1.0,0.0,carré
1,localizer,1,178,losenge,,,,,True,image,0.0,1.004,losenge
1,localizer,1,179,,dinde,,,,True,word,1.0,0.0,dinde
1,localizer,1,180,pince,,,,,True,image,0.0,1.0,pince
1,localizer,1,181,,pince,j,j,623.0,True,word,1.0,0.0,pince
1,localizer,1,182,biche,,,,,True,image,0.0,1.0,biche
1,localizer,1,183,,cercle,,,,True,word,1.0,0.0,cercle
1,localizer,1,184,losenge,,,,,True,image,0.0,1.0,losenge
1,localizer,1,185,,losenge,j,,,False,word,1.0,0.0,losenge
1,localizer,1,186,lampe,,,j,0.0,False,image,0.0,1.0,lampe
1,localizer,1,187,,carré,,,,True,word,1.0,0.0,carré
1,localizer,1,188,dinde,,,,,True,image,0.0,1.0,dinde
1,localizer,1,189,,dinde,j,j,484.0,True,word,1.004,0.0,dinde
1,localizer,1,190,losenge,,,,,True,image,0.0,1.0,losenge
1,localizer,1,191,,croix,,,,True,word,1.0,0.0,croix
1,localizer,1,192,biche,,,,,True,image,0.0,1.0,biche
1,localizer,1,193,,carré,,,,True,word,1.0,0.0,carré
1,localizer,1,194,carré,,j,j,563.0,True,image,0.0,1.0,carré
1,localizer,1,195,,biche,,,,True,word,1.0,0.0,biche
1,localizer,1,196,losenge,,,,,True,image,0.0,1.0,losenge
1,localizer,1,197,,cercle,,,,True,word,1.004,0.0,cercle
1,localizer,1,198,croix,,,,,True,image,0.0,1.0,croix
1,localizer,1,199,,lampe,,,,True,word,1.0,0.0,lampe
1,localizer,1,200,pince,,,,,True,image,0.0,1.0,pince
1,localizer,1,201,,pince,j,j,750.0,True,word,1.0,0.0,pince
1,localizer,1,202,carré,,,,,True,image,0.0,1.0,carré
1,localizer,1,203,,pince,,,,True,word,1.0,0.0,pince
1,localizer,1,204,carré,,,,,True,image,0.0,1.0,carré
1,localizer,1,205,,dinde,,,,True,word,1.0,0.0,dinde
1,localizer,1,206,losenge,,,,,True,image,0.0,1.004,losenge
1,localizer,1,207,,carré,,,,True,word,1.0,0.0,carré
1,localizer,1,208,dinde,,,,,True,image,0.0,1.0,dinde
1,localizer,1,209,,cercle,,,,True,word,1.0,0.0,cercle
1,localizer,1,210,biche,,,,,True,image,0.0,1.0,biche
1,localizer,1,211,,carré,,,,True,word,1.0,0.0,carré
1,localizer,1,212,losenge,,,,,True,image,0.0,1.0,losenge
1,localizer,1,213,,croix,,,,True,word,1.0,0.0,croix
1,localizer,1,214,carré,,,,,True,image,0.0,1.004,carré
1,localizer,1,215,,lampe,,,,True,word,1.0,0.0,lampe
1,localizer,1,216,biche,,,,,True,image,0.0,1.0,biche
1,localizer,1,217,,losenge,,,,True,word,1.0,0.0,losenge
1,localizer,1,218,croix,,,,,True,image,0.0,1.0,croix
1,localizer,1,219,,biche,,,,True,word,1.0,0.0,biche
1,localizer,1,220,biche,,j,j,523.0,True,image,0.0,,biche
1,localizer,1,221,,carré,,,,True,word,1.0,0.0,carré
1,localizer,1,222,biche,,,,,True,image,0.0,1.0,biche
1,localizer,1,223,,lampe,,,,True,word,1.0,0.0,lampe
1,localizer,1,224,croix,,,,,True,image,0.0,1.0,croix
1,localizer,1,225,,dinde,,,,True,word,1.0,0.0,dinde
1,localizer,1,226,pince,,,,,True,image,0.0,1.0,pince
1,localizer,1,227,,croix,,,,True,word,1.0,0.0,croix
1,localizer,1,228,pince,,,,,True,image,0.0,1.0,pince
1,localizer,1,229,,cercle,,,,True,word,1.0,0.0,cercle
1,localizer,1,230,losenge,,,,,True,image,0.0,1.0,losenge
1,localizer,1,231,,biche,,,,True,word,1.004,0.0,biche
1,localizer,1,232,lampe,,,,,True,image,0.0,1.0,lampe
1,localizer,1,233,,pince,,,,True,word,1.0,0.0,pince
1,localizer,1,234,pince,,j,j,433.0,True,image,0.0,1.0,pince
1,localizer,1,235,,biche,,,,True,word,1.0,0.0,biche
1,localizer,1,236,lampe,,,,,True,image,0.0,1.0,lampe
1,localizer,1,237,,dinde,,,,True,word,1.0,0.0,dinde
1,localizer,1,238,carré,,,,,True,image,0.0,1.0,carré
1,localizer,1,239,,biche,,,,True,word,1.004,0.0,biche
1,localizer,1,240,dinde,,,,,True,image,0.0,1.0,dinde
1,localizer,1,241,,croix,,,,True,word,1.0,0.0,croix
1,localizer,1,242,carré,,,,,True,image,0.0,1.0,carré
1,localizer,1,243,,losenge,,,,True,word,1.0,0.0,losenge
1,localizer,1,244,croix,,,,,True,image,0.0,1.0,croix
1,localizer,1,245,,lampe,,,,True,word,1.0,0.0,lampe
1,localizer,1,246,carré,,,,,True,image,0.0,1.004,carré
1,localizer,1,247,,lampe,,,,True,word,1.0,0.0,lampe
1,localizer,1,248,dinde,,,,,True,image,0.0,1.0,dinde
1,localizer,1,249,,biche,,,,True,word,1.0,0.0,biche
1,localizer,1,250,losenge,,,,,True,image,0.0,1.0,losenge
1,localizer,1,251,,cercle,,,,True,word,1.0,0.0,cercle
1,localizer,1,252,carré,,,,,True,image,0.0,1.0,carré
1,localizer,1,253,,pince,,,,True,word,1.0,0.0,pince
1,localizer,1,254,carré,,,,,True,image,0.0,1.004,carré
1,localizer,1,255,,cercle,,,,True,word,1.0,0.0,cercle
1,localizer,1,256,dinde,,,,,True,image,0.0,1.0,dinde
1,localizer,1,257,,carré,,,,True,word,1.0,0.0,carré
1,localizer,1,258,croix,,,,,True,image,0.0,1.0,croix
1,localizer,1,259,,carré,,,,True,word,1.0,0.0,carré
1,localizer,1,260,lampe,,,,,True,image,0.0,1.0,lampe
1,localizer,1,261,,cercle,,,,True,word,1.0,0.0,cercle
1,localizer,1,262,cercle,,j,j,573.0,True,image,0.0,1.004,cercle
1,localizer,1,263,,dinde,,,,True,word,1.0,0.0,dinde
1,localizer,1,264,losenge,,,,,True,image,0.0,1.0,losenge
1,localizer,1,265,,losenge,j,,,False,word,1.0,0.0,losenge
1,localizer,1,266,croix,,,,,True,image,0.0,1.0,croix
1,localizer,1,267,,losenge,,,,True,word,1.0,0.0,losenge
1,localizer,1,268,biche,,,,,True,image,0.0,1.0,biche
1,localizer,1,269,,carré,,,,True,word,,0.0,carré
1,localizer,1,270,losenge,,,,,True,image,0.0,1.0,losenge
1,localizer,1,271,,losenge,j,,,False,word,1.0,0.0,losenge
1,localizer,1,272,biche,,,j,0.0,False,image,0.0,1.0,biche
1,localizer,1,273,,biche,j,,,False,word,1.004,0.0,biche
1,localizer,1,274,pince,,,,,True,image,0.0,1.0,pince
1,localizer,1,275,,dinde,,,,True,word,1.0,0.0,dinde
1,localizer,1,276,cercle,,,,,True,image,0.0,1.0,cercle
1,localizer,1,277,,croix,,,,True,word,1.0,0.0,croix
1,localizer,1,278,carré,,,,,True,image,0.0,1.0,carré
1,localizer,1,279,,lampe,,,,True,word,1.0,0.0,lampe
1,localizer,1,280,cercle,,,,,True,image,0.0,1.0,cercle
1,localizer,1,281,,biche,,,,True,word,1.004,0.0,biche
1,localizer,1,282,losenge,,,,,True,image,0.0,1.0,losenge
1,localizer,1,283,,carré,,,,True,word,1.0,0.0,carré
1,localizer,1,284,biche,,,,,True,image,0.0,1.0,biche
1,localizer,1,285,,dinde,,,,True,word,1.0,0.0,dinde
1,localizer,1,286,dinde,,j,j,464.0,True,image,0.0,1.0,dinde
1,localizer,1,287,,dinde,j,j,563.0,True,word,1.0,0.0,dinde
1,localizer,1,288,carré,,,,,True,image,0.0,1.0,carré
1,localizer,1,289,,biche,,,,True,word,1.0,0.0,biche
1,localizer,1,290,dinde,,,,,True,image,0.0,1.004,dinde
1,localizer,1,291,,cercle,,,,True,word,1.0,0.0,cercle
1,localizer,1,292,lampe,,,,,True,image,0.0,1.0,lampe
1,localizer,1,293,,lampe,j,j,560.0,True,word,1.0,0.0,lampe
1,localizer,1,294,pince,,,,,True,image,0.0,1.0,pince
1,localizer,1,295,,lampe,,,,True,word,1.0,0.0,lampe
1,localizer,1,296,lampe,,j,j,375.0,True,image,0.0,1.0,lampe
1,localizer,1,297,,carré,,,,True,word,1.0,0.0,carré
1,localizer,1,298,dinde,,,,,True,image,0.0,1.004,dinde
1,localizer,1,299,,dinde,j,j,503.0,True,word,1.0,0.0,dinde
1,localizer,1,300,pince,,,,,True,image,0.0,1.0,pince
1,localizer,1,301,,pince,j,j,388.0,True,word,1.0,0.0,pince
1,localizer,1,302,dinde,,,,,True,image,0.0,1.0,dinde
1,localizer,1,303,,cercle,,,,True,word,1.0,0.0,cercle
1,localizer,1,304,lampe,,,,,True,image,0.0,1.0,lampe
1,localizer,1,305,,losenge,,,,True,word,1.0,0.0,losenge
1,localizer,1,306,biche,,,,,True,image,0.0,1.0,biche
1,localizer,1,307,,pince,,,,True,word,1.004,0.0,pince
1,localizer,1,308,carré,,,,,True,image,0.0,1.0,carré
1,localizer,1,309,,biche,,,,True,word,1.0,0.0,biche
1,localizer,1,310,pince,,,,,True,image,0.0,1.0,pince
1,localizer,1,311,,carré,,,,True,word,1.0,0.0,carré
1,localizer,1,312,cercle,,,,,True,image,0.0,1.0,cercle
1,localizer,1,313,,lampe,,,,True,word,1.0,0.0,lampe
1,localizer,1,314,carré,,,,,True,image,0.0,1.0,carré
1,localizer,1,315,,pince,,,,True,word,1.004,0.0,pince
1,localizer,1,316,biche,,,,,True,image,0.0,1.0,biche
1,localizer,1,317,,carré,,,,True,word,,0.0,carré
1,localizer,1,318,croix,,,,,True,image,0.0,1.0,croix
1,localizer,1,319,,dinde,,,,True,word,1.0,0.0,dinde
1,localizer,1,320,biche,,,,,True,image,0.0,1.0,biche
1,localizer,1,321,,dinde,,,,True,word,1.004,0.0,dinde
1,localizer,1,322,dinde,,j,j,626.0,True,image,0.0,1.0,dinde
1,localizer,1,323,,lampe,,,,True,word,1.0,0.0,lampe
1,localizer,1,324,cercle,,,,,True,image,0.0,1.0,cercle
1,localizer,1,325,,croix,,,,True,word,1.0,0.0,croix
1,localizer,1,326,croix,,j,j,424.0,True,image,0.0,1.0,croix
1,localizer,1,327,,lampe,,,,True,word,1.0,0.0,lampe
1,localizer,1,328,carré,,,,,True,image,0.0,1.0,carré
1,localizer,1,329,,dinde,,,,True,word,1.004,0.0,dinde
1,localizer,1,330,biche,,,,,True,image,0.0,1.0,biche
1,localizer,1,331,,croix,,,,True,word,1.0,0.0,croix
1,localizer,1,332,lampe,,,,,True,image,0.0,1.0,lampe
1,localizer,1,333,,carré,,,,True,word,1.0,0.0,carré
1,localizer,1,334,biche,,,,,True,image,0.0,1.0,biche
1,localizer,1,335,,dinde,,,,True,word,1.0,0.0,dinde
1,localizer,1,336,croix,,,,,True,image,0.0,1.0,croix
1,localizer,1,337,,biche,,,,True,word,1.0,0.0,biche
1,localizer,1,338,lampe,,,,,True,image,0.0,1.004,lampe
1,localizer,1,339,,cercle,,,,True,word,1.0,0.0,cercle
1,localizer,1,340,cercle,,j,j,591.0,True,image,0.0,1.0,cercle
1,localizer,1,341,,lampe,,,,True,word,1.0,0.0,lampe
1,localizer,1,342,lampe,,j,j,506.0,True,image,0.0,1.0,lampe
1,localizer,1,343,,biche,,,,True,word,1.0,0.0,biche
1,localizer,1,344,carré,,,,,True,image,0.0,1.0,carré
1,localizer,1,345,,pince,,,,True,word,1.0,0.0,pince
1,localizer,1,346,biche,,,,,True,image,0.0,1.004,biche
1,localizer,1,347,,losenge,,,,True,word,1.0,0.0,losenge
1,localizer,1,348,losenge,,j,j,500.0,True,image,0.0,1.0,losenge
1,localizer,1,349,,croix,,,,True,word,1.0,0.0,croix
1,localizer,1,350,pince,,,,,True,image,0.0,1.0,pince
1,localizer,1,351,,lampe,,,,True,word,1.0,0.0,lampe
1,localizer,1,352,lampe,,j,j,448.0,True,image,0.0,1.0,lampe
1,localizer,1,353,,croix,,,,True,word,1.0,0.0,croix
1,localizer,1,354,cercle,,,,,True,image,0.0,1.0,cercle
1,localizer,1,355,,biche,,,,True,word,1.004,0.0,biche
1,localizer,1,356,lampe,,,,,True,image,0.0,1.0,lampe
1,localizer,1,357,,biche,,,,True,word,1.0,0.0,biche
1,localizer,1,358,losenge,,,,,True,image,0.0,1.0,losenge
1,localizer,1,359,,dinde,,,,True,word,1.0,0.0,dinde
1,localizer,1,360,biche,,,,,True,image,0.0,1.0,biche
1,localizer,1,361,,croix,,,,True,word,1.0,0.0,croix
1,localizer,1,362,biche,,,,,True,image,0.0,1.0,biche
1,localizer,1,363,,cercle,,,,True,word,1.004,0.0,cercle
1,localizer,1,364,lampe,,,,,True,image,0.0,1.0,lampe
1,localizer,1,365,,carré,,,,True,word,1.0,0.0,carré
1,localizer,1,366,dinde,,,,,True,image,0.0,,dinde
1,localizer,1,367,,pince,,,,True,word,1.0,0.0,pince
1,localizer,1,368,croix,,,,,True,image,0.0,1.0,croix
1,localizer,1,369,,biche,,,,True,word,1.0,0.0,biche
1,localizer,1,370,biche,,j,j,473.0,True,image,0.0,1.0,biche
1,localizer,1,371,,lampe,,,,True,word,1.0,0.0,lampe
1,localizer,1,372,losenge,,,,,True,image,0.0,1.0,losenge
1,localizer,1,373,,croix,,,,True,word,1.004,0.0,croix
1,localizer,1,374,croix,,j,j,676.0,True,image,0.0,1.0,croix
1,localizer,1,375,,pince,,,,True,word,1.0,0.0,pince
1,localizer,1,376,losenge,,,,,True,image,0.0,1.0,losenge
1,localizer,1,377,,biche,,,,True,word,1.0,0.0,biche
1,localizer,1,378,losenge,,,,,True,image,0.0,1.0,losenge
1,localizer,1,379,,losenge,j,,,False,word,1.0,0.0,losenge
1,localizer,1,380,losenge,,j,j,627.0,True,image,0.0,1.0,losenge
1,localizer,1,381,,biche,,,,True,word,1.0,0.0,biche
1,localizer,1,382,pince,,,,,True,image,0.0,1.004,pince
1,localizer,1,383,,losenge,,,,True,word,1.0,0.0,losenge
1,localizer,1,384,dinde,,,,,True,image,0.0,1.0,dinde
1,localizer,1,385,,losenge,,,,True,word,1.0,0.0,losenge
1,localizer,1,386,biche,,,,,True,image,0.0,1.0,biche
1,localizer,1,387,,croix,,,,True,word,1.0,0.0,croix
1,localizer,1,388,biche,,,,,True,image,0.0,1.0,biche
1,localizer,1,389,,croix,,,,True,word,1.0,0.0,croix
1,localizer,1,390,cercle,,,,,True,image,0.0,1.004,cercle
1,localizer,1,391,,pince,,,,True,word,1.0,0.0,pince
1,localizer,1,392,croix,,,,,True,image,0.0,1.0,croix
1,localizer,1,393,,losenge,,,,True,word,1.0,0.0,losenge
1,localizer,1,394,pince,,,,,True,image,0.0,1.0,pince
1,localizer,1,395,,lampe,,,,True,word,1.0,0.0,lampe
1,localizer,1,396,cercle,,,,,True,image,0.0,1.0,cercle
1,localizer,1,397,,losenge,,,,True,word,1.0,0.0,losenge
1,localizer,1,398,biche,,,,,True,image,0.0,1.004,biche
1,localizer,1,399,,croix,,,,True,word,1.0,0.0,croix
1,localizer,1,400,carré,,,,,True,image,0.0,1.0,carré
1,localizer,1,401,,carré,j,,,False,word,1.0,0.0,carré
1,localizer,1,402,biche,,,,,True,image,0.0,1.0,biche
1,localizer,1,403,,croix,,,,True,word,1.0,0.0,croix
1,localizer,1,404,losenge,,,,,True,image,0.0,1.0,losenge
1,localizer,1,405,,lampe,,,,True,word,1.0,0.0,lampe
1,localizer,1,406,croix,,,,,True,image,0.0,1.0,croix
1,localizer,1,407,,lampe,,,,True,word,1.004,0.0,lampe
1,localizer,1,408,lampe,,j,j,360.0,True,image,0.0,1.0,lampe
1,localizer,1,409,,losenge,,,,True,word,1.0,0.0,losenge
1,localizer,1,410,croix,,,,,True,image,0.0,1.0,croix
1,localizer,1,411,,losenge,,,,True,word,1.0,0.0,losenge
1,localizer,1,412,carré,,,,,True,image,0.0,1.0,carré
1,localizer,1,413,,losenge,,,,True,word,1.0,0.0,losenge
1,localizer,1,414,carré,,,,,True,image,0.0,,carré
1,localizer,1,415,,biche,,,,True,word,1.0,0.0,biche
1,localizer,1,416,lampe,,,,,True,image,0.0,1.0,lampe
1,localizer,2,417,,dinde,,,,True,word,1.0,0.0,dinde
1,localizer,2,418,pince,,,,,True,image,0.0,1.0,pince
1,localizer,2,419,,pince,j,j,670.0,True,word,1.0,0.0,pince
1,localizer,2,420,biche,,,,,True,image,0.0,1.0,biche
1,localizer,2,421,,croix,,,,True,word,1.004,0.0,croix
1,localizer,2,422,biche,,,,,True,image,0.0,1.0,biche
1,localizer,2,423,,croix,,,,True,word,1.0,0.0,croix
1,localizer,2,424,lampe,,,,,True,image,0.0,1.0,lampe
1,localizer,2,425,,pince,,,,True,word,1.0,0.0,pince
1,localizer,2,426,carré,,,,,True,image,0.0,1.0,carré
1,localizer,2,427,,croix,,,,True,word,1.0,0.0,croix
1,localizer,2,428,biche,,,,,True,image,0.0,1.0,biche
1,localizer,2,429,,biche,j,j,578.0,True,word,1.0,0.0,biche
1,localizer,2,430,lampe,,,,,True,image,0.0,1.004,lampe
1,localizer,2,431,,pince,,,,True,word,1.0,0.0,pince
1,localizer,2,432,croix,,,,,True,image,0.0,1.0,croix
1,localizer,2,433,,biche,,,,True,word,1.0,0.0,biche
1,localizer,2,434,losenge,,,,,True,image,0.0,1.0,losenge
1,localizer,2,435,,lampe,,,,True,word,1.0,0.0,lampe
1,localizer,2,436,cercle,,,,,True,image,0.0,1.0,cercle
1,localizer,2,437,,dinde,,,,True,word,1.0,0.0,dinde
1,localizer,2,438,biche,,,,,True,image,0.0,1.004,biche
1,localizer,2,439,,dinde,,,,True,word,1.0,0.0,dinde
1,localizer,2,440,pince,,,,,True,image,0.0,1.0,pince
1,localizer,2,441,,biche,,,,True,word,1.0,0.0,biche
1,localizer,2,442,losenge,,,,,True,image,0.0,1.0,losenge
1,localizer,2,443,,pince,,,,True,word,1.0,0.0,pince
1,localizer,2,444,croix,,,,,True,image,0.0,1.0,croix
1,localizer,2,445,,biche,,,,True,word,1.0,0.0,biche
1,localizer,2,446,carré,,,,,True,image,0.0,1.0,carré
1,localizer,2,447,,cercle,,,,True,word,1.004,0.0,cercle
1,localizer,2,448,pince,,,,,True,image,0.0,1.0,pince
1,localizer,2,449,,lampe,,,,True,word,1.0,0.0,lampe
1,localizer,2,450,dinde,,,,,True,image,0.0,1.0,dinde
1,localizer,2,451,,dinde,j,j,560.0,True,word,1.0,0.0,dinde
1,localizer,2,452,dinde,,j,j,600.0,True,image,0.0,1.0,dinde
1,localizer,2,453,,dinde,j,j,585.0,True,word,1.0,0.0,dinde
1,localizer,2,454,lampe,,,,,True,image,0.0,1.0,lampe
1,localizer,2,455,,cercle,,,,True,word,1.0,0.0,cercle
1,localizer,2,456,losenge,,,,,True,image,0.0,1.0,losenge
1,localizer,2,457,,biche,,,,True,word,1.004,0.0,biche
1,localizer,2,458,carré,,,,,True,image,0.0,1.0,carré
1,localizer,2,459,,dinde,,,,True,word,1.0,0.0,dinde
1,localizer,2,460,carré,,,,,True,image,0.0,1.0,carré
1,localizer,2,461,,pince,,,,True,word,1.0,0.0,pince
1,localizer,2,462,croix,,,,,True,image,0.0,,croix
1,localizer,2,463,,carré,,,,True,word,1.0,0.0,carré
1,localizer,2,464,pince,,,,,True,image,0.0,1.0,pince
1,localizer,2,465,,carré,,,,True,word,1.004,0.0,carré
1,localizer,2,466,pince,,,,,True,image,0.0,1.0,pince
1,localizer,2,467,,pince,j,j,564.0,True,word,1.0,0.0,pince
1,localizer,2,468,dinde,,,,,True,image,0.0,1.0,dinde
1,localizer,2,469,,cercle,,,,True,word,1.0,0.0,cercle
1,localizer,2,470,croix,,,,,True,image,0.0,1.0,croix
1,localizer,2,471,,carré,,,,True,word,1.0,0.0,carré
1,localizer,2,472,carré,,j,,,False,image,0.0,1.0,carré
1,localizer,2,473,,losenge,,,,True,word,1.0,0.0,losenge
1,localizer,2,474,cercle,,,,,True,image,0.0,1.004,cercle
1,localizer,2,475,,losenge,,,,True,word,1.0,0.0,losenge
1,localizer,2,476,cercle,,,,,True,image,0.0,1.0,cercle
1,localizer,2,477,,lampe,,,,True,word,1.0,0.0,lampe
1,localizer,2,478,pince,,,,,True,image,0.0,1.0,pince
1,localizer,2,479,,cercle,,,,True,word,1.0,0.0,cercle
1,localizer,2,480,cercle,,j,,,False,image,0.0,,cercle
1,localizer,2,481,,carré,,,,True,word,1.0,0.0,carré
1,localizer,2,482,carré,,j,j,359.0,True,image,0.0,1.0,carré
1,localizer,2,483,,croix,,,,True,word,1.0,0.0,croix
1,localizer,2,484,croix,,j,j,456.0,True,image,0.0,1.0,croix
1,localizer,2,485,,cercle,,,,True,word,1.0,0.0,cercle
1,localizer,2,486,cercle,,j,j,372.0,True,image,0.0,1.004,cercle
1,localizer,2,487,,croix,,,,True,word,1.0,0.0,croix
1,localizer,2,488,carré,,,,,True,image,0.0,1.0,carré
1,localizer,2,489,,biche,,,,True,word,1.0,0.0,biche
1,localizer,2,490,lampe,,,,,True,image,0.0,1.0,lampe
1,localizer,2,491,,dinde,,,,True,word,1.0,0.0,dinde
1,localizer,2,492,croix,,,,,True,image,0.0,1.0,croix
1,localizer,2,493,,lampe,,,,True,word,1.0,0.0,lampe
1,localizer,2,494,pince,,,,,True,image,0.0,1.0,pince
1,localizer,2,495,,lampe,,,,True,word,1.0,0.0,lampe
1,localizer,2,496,pince,,,,,True,image,0.0,1.004,pince
1,localizer,2,497,,cercle,,,,True,word,1.0,0.0,cercle
1,localizer,2,498,cercle,,j,j,460.0,True,image,0.0,1.0,cercle
1,localizer,2,499,,croix,,,,True,word,1.0,0.0,croix
1,localizer,2,500,biche,,,,,True,image,0.0,1.0,biche
1,localizer,2,501,,croix,,,,True,word,1.0,0.0,croix
1,localizer,2,502,carré,,,,,True,image,0.0,1.0,carré
1,localizer,2,503,,carré,j,j,497.0,True,word,1.0,0.0,carré
1,localizer,2,504,lampe,,,,,True,image,0.0,1.0,lampe
1,localizer,2,505,,carré,,,,True,word,1.004,0.0,carré
1,localizer,2,506,dinde,,,,,True,image,0.0,1.0,dinde
1,localizer,2,507,,cercle,,,,True,word,1.0,0.0,cercle
1,localizer,2,508,dinde,,,,,True,image,0.0,1.0,dinde
1,localizer,2,509,,pince,,,,True,word,1.0,0.0,pince
1,localizer,2,510,cercle,,,,,True,image,0.0,1.0,cercle
1,localizer,2,511,,dinde,,,,True,word,1.004,0.0,dinde
1,localizer,2,512,croix,,,,,True,image,0.0,1.0,croix
1,localizer,2,513,,dinde,,,,True,word,1.0,0.0,dinde
1,localizer,2,514,lampe,,,,,True,image,0.0,1.0,lampe
1,localizer,2,515,,dinde,,,,True,word,1.0,0.0,dinde
1,localizer,2,516,lampe,,,,,True,image,0.0,1.0,lampe
1,localizer,2,517,,croix,,,,True,word,1.0,0.0,croix
1,localizer,2,518,pince,,,,,True,image,0.0,1.0,pince
1,localizer,2,519,,dinde,,,,True,word,1.0,0.0,dinde
1,localizer,2,520,dinde,,j,j,488.0,True,image,0.0,1.0,dinde
1,localizer,2,521,,biche,,,,True,word,1.0,0.0,biche
1,localizer,2,522,carré,,,,,True,image,0.0,1.004,carré
1,localizer,2,523,,croix,,,,True,word,1.0,0.0,croix
1,localizer,2,524,carré,,,,,True,image,0.0,1.0,carré
1,localizer,2,525,,cercle,,,,True,word,1.0,0.0,cercle
1,localizer,2,526,lampe,,,,,True,image,0.0,1.0,lampe
1,localizer,2,527,,pince,,,,True,word,1.0,0.0,pince
1,localizer,2,528,croix,,,,,True,image,0.0,1.004,croix
1,localizer,2,529,,pince,,,,True,word,1.0,0.0,pince
1,localizer,2,530,croix,,,,,True,image,0.0,,croix
1,localizer,2,531,,biche,,,,True,word,1.0,0.0,biche
1,localizer,2,532,dinde,,,,,True,image,0.0,1.0,dinde
1,localizer,2,533,,cercle,,,,True,word,1.0,0.0,cercle
1,localizer,2,534,dinde,,,,,True,image,0.0,1.0,dinde
1,localizer,2,535,,pince,,,,True,word,1.0,0.0,pince
1,localizer,2,536,dinde,,,,,True,image,0.0,1.004,dinde
1,localizer,2,537,,losenge,,,,True,word,1.0,0.0,losenge
1,localizer,2,538,croix,,,,,True,image,0.0,1.0,croix
1,localizer,2,539,,losenge,,,,True,word,1.0,0.0,losenge
1,localizer,2,540,carré,,,,,True,image,0.0,1.0,carré
1,localizer,2,541,,carré,j,j,539.0,True,word,1.0,0.0,carré
1,localizer,2,542,carré,,j,j,420.0,True,image,0.0,1.0,carré
1,localizer,2,543,,lampe,,,,True,word,1.0,0.0,lampe
1,localizer,2,544,pince,,,,,True,image,0.0,1.0,pince
1,localizer,2,545,,losenge,,,,True,word,1.004,0.0,losenge
1,localizer,2,546,losenge,,j,j,489.0,True,image,0.0,1.0,losenge
1,localizer,2,547,,biche,,,,True,word,1.0,0.0,biche
1,localizer,2,548,dinde,,,,,True,image,0.0,1.0,dinde
1,localizer,2,549,,losenge,,,,True,word,1.0,0.0,losenge
1,localizer,2,550,lampe,,,,,True,image,0.0,1.0,lampe
1,localizer,2,551,,lampe,j,j,579.0,True,word,1.0,0.0,lampe
1,localizer,2,552,biche,,,,,True,image,0.0,1.0,biche
1,localizer,2,553,,biche,j,j,403.0,True,word,1.0,0.0,biche
1,localizer,2,554,pince,,,,,True,image,0.0,1.0,pince
1,localizer,2,555,,pince,j,j,357.0,True,word,1.004,0.0,pince
1,localizer,2,556,lampe,,,,,True,image,0.0,1.0,lampe
1,localizer,2,557,,pince,,,,True,word,1.0,0.0,pince
1,localizer,2,558,pince,,j,j,650.0,True,image,0.0,1.0,pince
1,localizer,2,559,,lampe,,,,True,word,1.0,0.0,lampe
1,localizer,2,560,biche,,,,,True,image,0.0,1.0,biche
1,localizer,2,561,,cercle,,,,True,word,1.004,0.0,cercle
1,localizer,2,562,lampe,,,,,True,image,0.0,1.0,lampe
1,localizer,2,563,,cercle,,,,True,word,1.0,0.0,cercle
1,localizer,2,564,losenge,,,,,True,image,0.0,1.0,losenge
1,localizer,2,565,,biche,,,,True,word,1.0,0.0,biche
1,localizer,2,566,cercle,,,,,True,image,0.0,1.0,cercle
1,localizer,2,567,,lampe,,,,True,word,1.0,0.0,lampe
1,localizer,2,568,cercle,,,,,True,image,0.0,1.0,cercle
1,localizer,2,569,,dinde,,,,True,word,1.0,0.0,dinde
1,localizer,2,570,lampe,,,,,True,image,0.0,1.004,lampe
1,localizer,2,571,,biche,,,,True,word,1.0,0.0,biche
1,localizer,2,572,biche,,j,j,569.0,True,image,0.0,1.0,biche
1,localizer,2,573,,dinde,,,,True,word,1.0,0.0,dinde
1,localizer,2,574,carré,,,,,True,image,0.0,1.0,carré
1,localizer,2,575,,croix,,,,True,word,1.0,0.0,croix
1,localizer,2,576,croix,,j,j,542.0,True,image,0.0,1.0,croix
1,localizer,2,577,,croix,j,j,475.0,True,word,1.0,0.0,croix
1,localizer,2,578,pince,,,,,True,image,0.0,1.0,pince
1,localizer,2,579,,carré,,,,True,word,,0.0,carré
1,localizer,2,580,carré,,j,j,474.0,True,image,0.0,1.0,carré
1,localizer,2,581,,biche,,,,True,word,1.0,0.0,biche
1,localizer,2,582,cercle,,,,,True,image,0.0,1.0,cercle
1,localizer,2,583,,lampe,,,,True,word,1.0,0.0,lampe
1,localizer,2,584,biche,,,,,True,image,0.0,1.0,biche
1,localizer,2,585,,lampe,,,,True,word,1.0,0.0,lampe
1,localizer,2,586,losenge,,,,,True,image,0.0,1.0,losenge
1,localizer,2,587,,croix,,,,True,word,1.0,0.0,croix
1,localizer,2,588,carré,,,,,True,image,0.0,1.0,carré
1,localizer,2,589,,pince,,,,True,word,1.004,0.0,pince
1,localizer,2,590,biche,,,,,True,image,0.0,1.0,biche
1,localizer,2,591,,lampe,,,,True,word,1.0,0.0,lampe
1,localizer,2,592,losenge,,,,,True,image,0.0,1.0,losenge
1,localizer,2,593,,pince,,,,True,word,1.0,0.0,pince
1,localizer,2,594,cercle,,,,,True,image,0.0,1.0,cercle
1,localizer,2,595,,croix,,,,True,word,1.0,0.0,croix
1,localizer,2,596,croix,,j,,,False,image,0.0,1.0,croix
1,localizer,2,597,,cercle,,,,True,word,1.004,0.0,cercle
1,localizer,2,598,cercle,,j,j,756.0,True,image,0.0,1.0,cercle
1,localizer,2,599,,biche,,,,True,word,1.0,0.0,biche
1,localizer,2,600,cercle,,,,,True,image,0.0,1.0,cercle
1,localizer,2,601,,lampe,,,,True,word,1.0,0.0,lampe
1,localizer,2,602,pince,,,,,True,image,0.0,1.0,pince
1,localizer,2,603,,croix,,,,True,word,1.0,0.0,croix
1,localizer,2,604,cercle,,,,,True,image,0.0,1.0,cercle
1,localizer,2,605,,biche,,,,True,word,1.0,0.0,biche
1,localizer,2,606,dinde,,,,,True,image,0.0,1.004,dinde
1,localizer,2,607,,losenge,,,,True,word,1.0,0.0,losenge
1,localizer,2,608,dinde,,,,,True,image,0.0,1.0,dinde
1,localizer,2,609,,pince,,,,True,word,1.0,0.0,pince
1,localizer,2,610,biche,,,,,True,image,0.0,1.0,biche
1,localizer,2,611,,dinde,,,,True,word,1.0,0.0,dinde
1,localizer,2,612,pince,,,,,True,image,0.0,1.0,pince
1,localizer,2,613,,lampe,,,,True,word,1.0,0.0,lampe
1,localizer,2,614,croix,,,,,True,image,0.0,1.004,croix
1,localizer,2,615,,carré,,,,True,word,1.0,0.0,carré
1,localizer,2,616,dinde,,,,,True,image,0.0,1.0,dinde
1,localizer,2,617,,pince,,,,True,word,1.0,0.0,pince
1,localizer,2,618,pince,,j,,,False,image,0.0,1.0,pince
1,localizer,2,619,,biche,,,,True,word,1.0,0.0,biche
1,localizer,2,620,dinde,,,,,True,image,0.0,1.004,dinde
1,localizer,2,621,,pince,,,,True,word,1.0,0.0,pince
1,localizer,2,622,biche,,,,,True,image,0.0,1.0,biche
1,localizer,2,623,,biche,j,j,490.0,True,word,1.0,0.0,biche
1,localizer,2,624,pince,,,,,True,image,0.0,1.0,pince
1,localizer,2,625,,losenge,,,,True,word,1.0,0.0,losenge
1,localizer,2,626,carré,,,,,True,image,0.0,1.0,carré
1,localizer,2,627,,losenge,,,,True,word,,0.0,losenge
1,localizer,2,628,dinde,,,,,True,image,0.0,1.004,dinde
1,localizer,2,629,,cercle,,,,True,word,1.0,0.0,cercle
1,localizer,2,630,pince,,,,,True,image,0.0,1.0,pince
1,localizer,2,631,,cercle,,,,True,word,1.0,0.0,cercle
1,localizer,2,632,cercle,,j,j,414.0,True,image,0.0,1.0,cercle
1,localizer,2,633,,croix,,,,True,word,1.0,0.0,croix
1,localizer,2,634,croix,,j,j,517.0,True,image,0.0,1.0,croix
1,localizer,2,635,,losenge,,,,True,word,1.0,0.0,losenge
1,localizer,2,636,cercle,,,,,True,image,0.0,1.0,cercle
1,localizer,2,637,,carré,,,,True,word,1.0,0.0,carré
1,localizer,2,638,biche,,,,,True,image,0.0,1.0,biche
1,localizer,2,639,,biche,j,,,False,word,1.004,0.0,biche
1,localizer,2,640,pince,,,j,0.0,False,image,0.0,1.0,pince
1,localizer,2,641,,dinde,,,,True,word,1.0,0.0,dinde
1,localizer,2,642,cercle,,,,,True,image,0.0,1.0,cercle
1,localizer,2,643,,lampe,,,,True,word,1.0,0.0,lampe
1,localizer,2,644,cercle,,,,,True,image,0.0,1.0,cercle
1,localizer,2,645,,pince,,,,True,word,1.0,0.0,pince
1,localizer,2,646,biche,,,,,True,image,0.0,1.0,biche
1,localizer,2,647,,biche,j,j,548.0,True,word,1.004,0.0,biche
1,localizer,2,648,carré,,,,,True,image,0.0,1.0,carré
1,localizer,2,649,,carré,j,j,481.0,True,word,1.0,0.0,carré
1,localizer,2,650,croix,,,,,True,image,0.0,1.0,croix
1,localizer,2,651,,lampe,,,,True,word,1.0,0.0,lampe
1,localizer,2,652,biche,,,,,True,image,0.0,1.0,biche
1,localizer,2,653,,lampe,,,,True,word,1.0,0.0,lampe
1,localizer,2,654,losenge,,,,,True,image,0.0,1.0,losenge
1,localizer,2,655,,pince,,,,True,word,1.0,0.0,pince
1,localizer,2,656,biche,,,,,True,image,0.0,1.004,biche
1,localizer,2,657,,lampe,,,,True,word,1.0,0.0,lampe
1,localizer,2,658,lampe,,j,j,555.0,True,image,0.0,1.0,lampe
1,localizer,2,659,,lampe,j,j,602.0,True,word,1.0,0.0,lampe
1,localizer,2,660,cercle,,,,,True,image,0.0,1.0,cercle
1,localizer,2,661,,pince,,,,True,word,1.0,0.0,pince
1,localizer,2,662,pince,,j,j,739.0,True,image,0.0,1.004,pince
1,localizer,2,663,,losenge,,,,True,word,1.0,0.0,losenge
1,localizer,2,664,cercle,,,,,True,image,0.0,1.0,cercle
1,localizer,2,665,,cercle,j,j,752.0,True,word,1.0,0.0,cercle
1,localizer,2,666,lampe,,,,,True,image,0.0,1.0,lampe
1,localizer,2,667,,cercle,,,,True,word,1.0,0.0,cercle
1,localizer,2,668,cercle,,j,j,378.0,True,image,0.0,1.0,cercle
1,localizer,2,669,,losenge,,,,True,word,1.0,0.0,losenge
1,localizer,2,670,losenge,,j,j,350.0,True,image,0.0,1.0,losenge
1,localizer,2,671,,pince,,,,True,word,1.004,0.0,pince
1,localizer,2,672,losenge,,,,,True,image,0.0,1.0,losenge
1,localizer,2,673,,cercle,,,,True,word,1.0,0.0,cercle
1,localizer,2,674,cercle,,j,j,538.0,True,image,0.0,1.0,cercle
1,localizer,2,675,,lampe,,,,True,word,1.0,0.0,lampe
1,localizer,2,676,croix,,,,,True,image,0.0,,croix
1,localizer,2,677,,lampe,,,,True,word,1.0,0.0,lampe
1,localizer,2,678,cercle,,,,,True,image,0.0,1.0,cercle
1,localizer,2,679,,croix,,,,True,word,1.0,0.0,croix
1,localizer,2,680,croix,,j,j,477.0,True,image,0.0,1.0,croix
1,localizer,2,681,,cercle,,,,True,word,1.004,0.0,cercle
1,localizer,2,682,pince,,,,,True,image,0.0,1.0,pince
1,localizer,2,683,,dinde,,,,True,word,1.0,0.0,dinde
1,localizer,2,684,dinde,,j,j,544.0,True,image,0.0,1.0,dinde
1,localizer,2,685,,dinde,j,j,657.0,True,word,1.0,0.0,dinde
1,localizer,2,686,lampe,,,,,True,image,0.0,1.0,lampe
1,localizer,2,687,,cercle,,,,True,word,1.0,0.0,cercle
1,localizer,2,688,cercle,,j,j,494.0,True,image,0.0,1.0,cercle
1,localizer,2,689,,lampe,,,,True,word,1.004,0.0,lampe
1,localizer,2,690,pince,,,,,True,image,0.0,1.0,pince
1,localizer,2,691,,croix,,,,True,word,1.0,0.0,croix
1,localizer,2,692,pince,,,,,True,image,0.0,1.0,pince
1,localizer,2,693,,cercle,,,,True,word,1.0,0.0,cercle
1,localizer,2,694,lampe,,,,,True,image,0.0,1.0,lampe
1,localizer,2,695,,cercle,,,,True,word,1.0,0.0,cercle
1,localizer,2,696,croix,,,,,True,image,0.0,1.0,croix
1,localizer,2,697,,lampe,,,,True,word,1.0,0.0,lampe
1,localizer,2,698,losenge,,,,,True,image,0.0,1.004,losenge
1,localizer,2,699,,dinde,,,,True,word,1.0,0.0,dinde
1,localizer,2,700,dinde,,j,j,736.0,True,image,0.0,1.0,dinde
1,localizer,2,701,,lampe,,,,True,word,1.0,0.0,lampe
1,localizer,2,702,cercle,,,,,True,image,0.0,1.0,cercle
1,localizer,2,703,,croix,,,,True,word,1.0,0.0,croix
1,localizer,2,704,cercle,,,,,True,image,0.0,1.004,cercle
1,localizer,2,705,,carré,,,,True,word,1.0,0.0,carré
1,localizer,2,706,losenge,,,,,True,image,0.0,1.0,losenge
1,localizer,2,707,,carré,,,,True,word,1.0,0.0,carré
1,localizer,2,708,lampe,,,,,True,image,0.0,1.0,lampe
1,localizer,2,709,,lampe,j,j,645.0,True,word,1.0,0.0,lampe
1,localizer,2,710,biche,,,,,True,image,0.0,1.0,biche
1,localizer,2,711,,carré,,,,True,word,1.0,0.0,carré
1,localizer,2,712,dinde,,,,,True,image,0.0,1.0,dinde
1,localizer,2,713,,biche,,,,True,word,1.004,0.0,biche
1,localizer,2,714,croix,,,,,True,image,0.0,1.0,croix
1,localizer,2,715,,pince,,,,True,word,1.0,0.0,pince
1,localizer,2,716,croix,,,,,True,image,0.0,1.0,croix
1,localizer,2,717,,pince,,,,True,word,1.0,0.0,pince
1,localizer,2,718,pince,,j,j,589.0,True,image,0.0,1.0,pince
1,localizer,2,719,,losenge,,,,True,word,1.0,0.0,losenge
1,localizer,2,720,losenge,,j,j,455.0,True,image,0.0,1.0,losenge
1,localizer,2,721,,lampe,,,,True,word,1.004,0.0,lampe
1,localizer,2,722,cercle,,,,,True,image,0.0,1.0,cercle
1,localizer,2,723,,lampe,,,,True,word,1.0,0.0,lampe
1,localizer,2,724,dinde,,,,,True,image,0.0,,dinde
1,localizer,2,725,,dinde,j,j,493.0,True,word,1.0,0.0,dinde
1,localizer,2,726,carré,,,,,True,image,0.0,1.0,carré
1,localizer,2,727,,croix,,,,True,word,1.0,0.0,croix
1,localizer,2,728,dinde,,,,,True,image,0.0,1.0,dinde
1,localizer,2,729,,losenge,,,,True,word,1.0,0.0,losenge
1,localizer,2,730,biche,,,,,True,image,0.0,1.0,biche
1,localizer,2,731,,pince,,,,True,word,1.004,0.0,pince
1,localizer,2,732,carré,,,,,True,image,0.0,1.0,carré
1,localizer,2,733,,carré,j,j,582.0,True,word,1.0,0.0,carré
1,localizer,2,734,losenge,,,,,True,image,0.0,1.0,losenge
1,localizer,2,735,,cercle,,,,True,word,1.0,0.0,cercle
1,localizer,2,736,dinde,,,,,True,image,0.0,1.0,dinde
1,localizer,2,737,,pince,,,,True,word,1.0,0.0,pince
1,localizer,2,738,losenge,,,,,True,image,0.0,1.0,losenge
1,localizer,2,739,,biche,,,,True,word,1.0,0.0,biche
1,localizer,2,740,biche,,j,j,697.0,True,image,0.0,1.004,biche
1,localizer,2,741,,croix,,,,True,word,1.0,0.0,croix
1,localizer,2,742,croix,,j,j,551.0,True,image,0.0,1.0,croix
1,localizer,2,743,,losenge,,,,True,word,1.0,0.0,losenge
1,localizer,2,744,croix,,,,,True,image,0.0,1.0,croix
1,localizer,2,745,,losenge,,,,True,word,1.0,0.0,losenge
1,localizer,2,746,lampe,,,,,True,image,0.0,1.0,lampe
1,localizer,2,747,,biche,,,,True,word,1.0,0.0,biche
1,localizer,2,748,croix,,,,,True,image,0.0,1.004,croix
1,localizer,2,749,,carré,,,,True,word,1.0,0.0,carré
1,localizer,2,750,dinde,,,,,True,image,0.0,1.0,dinde
1,localizer,2,751,,biche,,,,True,word,1.0,0.0,biche
1,localizer,2,752,biche,,j,j,561.0,True,image,0.0,1.0,biche
1,localizer,2,753,,losenge,,,,True,word,1.0,0.0,losenge
1,localizer,2,754,pince,,,,,True,image,0.0,1.0,pince
1,localizer,2,755,,biche,,,,True,word,1.0,0.0,biche
1,localizer,2,756,losenge,,,j,597.0,False,image,0.0,1.004,losenge
1,localizer,2,757,,dinde,,,,True,word,1.0,0.0,dinde
1,localizer,2,758,carré,,,,,True,image,0.0,1.0,carré
1,localizer,2,759,,pince,,,,True,word,1.0,0.0,pince
1,localizer,2,760,pince,,j,j,776.0,True,image,0.0,1.0,pince
1,localizer,2,761,,carré,,,,True,word,1.0,0.0,carré
1,localizer,2,762,dinde,,,,,True,image,0.0,1.0,dinde
1,localizer,2,763,,cercle,,,,True,word,1.0,0.0,cercle
1,localizer,2,764,losenge,,,,,True,image,0.0,1.0,losenge
1,localizer,2,765,,dinde,,,,True,word,1.004,0.0,dinde
1,localizer,2,766,dinde,,j,j,520.0,True,image,0.0,1.0,dinde
1,localizer,2,767,,biche,,,,True,word,1.0,0.0,biche
1,localizer,2,768,biche,,j,,,False,image,0.0,1.0,biche
1,localizer,2,769,,pince,,j,251.0,False,word,1.0,0.0,pince
1,localizer,2,770,losenge,,,,,True,image,0.0,1.0,losenge
1,localizer,2,771,,lampe,,,,True,word,1.004,0.0,lampe
1,localizer,2,772,losenge,,,,,True,image,0.0,,losenge
1,localizer,2,773,,croix,,,,True,word,1.0,0.0,croix
1,localizer,2,774,dinde,,,,,True,image,0.0,1.0,dinde
1,localizer,2,775,,carré,,,,True,word,1.0,0.0,carré
1,localizer,2,776,lampe,,,,,True,image,0.0,1.0,lampe
1,localizer,2,777,,carré,,,,True,word,1.0,0.0,carré
1,localizer,2,778,lampe,,,,,True,image,0.0,1.0,lampe
1,localizer,2,779,,losenge,,,,True,word,1.004,0.0,losenge
1,localizer,2,780,croix,,,,,True,image,0.0,1.0,croix
1,localizer,2,781,,losenge,,,,True,word,1.0,0.0,losenge
1,localizer,2,782,losenge,,j,j,767.0,True,image,0.0,1.0,losenge
1,localizer,2,783,,lampe,,,,True,word,1.0,0.0,lampe
1,localizer,2,784,losenge,,,,,True,image,0.0,1.0,losenge
1,localizer,2,785,,losenge,j,j,592.0,True,word,1.0,0.0,losenge
1,localizer,2,786,lampe,,,,,True,image,0.0,1.0,lampe
1,localizer,2,787,,dinde,,,,True,word,1.0,0.0,dinde
1,localizer,2,788,cercle,,,,,True,image,0.0,1.004,cercle
1,localizer,2,789,,biche,,,,True,word,1.0,0.0,biche
1,localizer,2,790,croix,,,,,True,image,0.0,1.0,croix
1,localizer,2,791,,biche,,,,True,word,1.0,0.0,biche
1,localizer,2,792,losenge,,,,,True,image,0.0,1.0,losenge
1,localizer,2,793,,cercle,,,,True,word,1.0,0.0,cercle
1,localizer,2,794,dinde,,,,,True,image,0.0,1.0,dinde
1,localizer,2,795,,losenge,,,,True,word,1.0,0.0,losenge
1,localizer,2,796,pince,,,,,True,image,0.0,1.0,pince
1,localizer,2,797,,cercle,,,,True,word,1.004,0.0,cercle
1,localizer,2,798,croix,,,,,True,image,0.0,1.0,croix
1,localizer,2,799,,biche,,,,True,word,1.0,0.0,biche
1,localizer,2,800,losenge,,,,,True,image,0.0,1.0,losenge
1,localizer,2,801,,pince,,,,True,word,1.0,0.0,pince
1,localizer,2,802,lampe,,,,,True,image,0.0,1.0,lampe
1,localizer,2,803,,cercle,,,,True,word,1.0,0.0,cercle
1,localizer,2,804,lampe,,,,,True,image,0.0,1.0,lampe
1,localizer,2,805,,lampe,j,j,568.0,True,word,1.004,0.0,lampe
1,localizer,2,806,dinde,,,,,True,image,0.0,1.0,dinde
1,localizer,2,807,,biche,,,,True,word,1.0,0.0,biche
1,localizer,2,808,dinde,,,,,True,image,0.0,1.0,dinde
1,localizer,2,809,,croix,,,,True,word,1.0,0.0,croix
1,localizer,2,810,losenge,,,,,True,image,0.0,1.0,losenge
1,localizer,2,811,,losenge,j,j,749.0,True,word,1.0,0.0,losenge
1,localizer,2,812,losenge,,j,j,425.0,True,image,0.0,1.0,losenge
1,localizer,2,813,,croix,,,,True,word,1.0,0.0,croix
1,localizer,2,814,losenge,,,,,True,image,0.0,1.0,losenge
1,localizer,2,815,,losenge,j,j,563.0,True,word,1.004,0.0,losenge
1,localizer,2,816,dinde,,,,,True,image,0.0,1.0,dinde
1,localizer,2,817,,biche,,,,True,word,1.0,0.0,biche
1,localizer,2,818,croix,,,,,True,image,0.0,1.0,croix
1,localizer,2,819,,dinde,,,,True,word,1.0,0.0,dinde
1,localizer,2,820,carré,,,,,True,image,0.0,1.0,carré
1,localizer,2,821,,cercle,,,,True,word,,0.0,cercle
1,localizer,2,822,croix,,,,,True,image,0.0,1.0,croix
1,localizer,2,823,,losenge,,,,True,word,1.004,0.0,losenge
1,localizer,2,824,losenge,,j,j,511.0,True,image,0.0,1.0,losenge
1,localizer,2,825,,cercle,,,,True,word,1.0,0.0,cercle
1,localizer,2,826,losenge,,,,,True,image,0.0,1.0,losenge
1,localizer,2,827,,pince,,,,True,word,1.0,0.0,pince
1,localizer,2,828,carré,,,,,True,image,0.0,1.0,carré
1,localizer,2,829,,lampe,,,,True,word,1.0,0.0,lampe
1,localizer,2,830,dinde,,,,,True,image,0.0,1.0,dinde
1,localizer,2,831,,cercle,,,,True,word,1.0,0.0,cercle
1,localizer,2,832,pince,,,,,True,image,0.0,1.004,pince
1,localizer,2,833,,croix,,,,True,word,1.0,0.0,croix
1,localizer,2,834,croix,,j,j,553.0,True,image,0.0,1.0,croix
1,localizer,2,835,,biche,,,,True,word,1.0,0.0,biche
1,localizer,2,836,lampe,,,,,True,image,0.0,1.0,lampe
1,localizer,2,837,,pince,,,,True,word,1.0,0.0,pince
1,localizer,2,838,lampe,,,,,True,image,0.0,1.0,lampe
1,localizer,2,839,,carré,,,,True,word,1.0,0.0,carré
1,localizer,2,840,biche,,,,,True,image,0.0,1.0,biche
1,localizer,2,841,,cercle,,,,True,word,1.004,0.0,cercle
1,localizer,2,842,lampe,,,,,True,image,0.0,1.0,lampe
1,localizer,2,843,,dinde,,,,True,word,1.0,0.0,dinde
1,localizer,2,844,lampe,,,,,True,image,0.0,1.0,lampe
1,localizer,2,845,,biche,,,,True,word,1.0,0.0,biche
1,localizer,2,846,cercle,,,,,True,image,0.0,1.0,cercle
1,localizer,2,847,,dinde,,,,True,word,1.0,0.0,dinde
1,localizer,2,848,pince,,,,,True,image,0.0,1.0,pince
1,localizer,2,849,,cercle,,,,True,word,,0.0,cercle
1,localizer,2,850,pince,,,,,True,image,0.0,0.992,pince
1,localizer,2,851,,carré,,,,True,word,1.0,0.0,carré
1,localizer,2,852,biche,,,,,True,image,0.0,1.0,biche
1,localizer,2,853,,carré,,,,True,word,1.0,0.0,carré
1,localizer,2,854,carré,,j,j,594.0,True,image,0.0,1.0,carré
1,localizer,2,855,,dinde,,,,True,word,1.004,0.0,dinde
1,localizer,2,856,croix,,,,,True,image,0.0,1.0,croix
1,localizer,2,857,,pince,,,,True,word,1.0,0.0,pince
1,localizer,2,858,pince,,j,j,448.0,True,image,0.0,1.0,pince
1,localizer,2,859,,carré,,,,True,word,1.0,0.0,carré
1,localizer,2,860,cercle,,,,,True,image,0.0,1.0,cercle
1,localizer,2,861,,pince,,,,True,word,1.0,0.0,pince
1,localizer,2,862,cercle,,,,,True,image,0.0,1.0,cercle
1,localizer,2,863,,carré,,,,True,word,1.004,0.0,carré
1,localizer,2,864,dinde,,,,,True,image,0.0,1.0,dinde
1,localizer,2,865,,losenge,,,,True,word,1.0,0.0,losenge
1,localizer,2,866,pince,,,,,True,image,0.0,1.0,pince
1,localizer,2,867,,lampe,,,,True,word,1.0,0.0,lampe
1,localizer,2,868,dinde,,,,,True,image,0.0,,dinde
1,localizer,2,869,,dinde,j,j,640.0,True,word,1.0,0.0,dinde
1,localizer,2,870,dinde,,j,j,754.0,True,image,0.0,1.0,dinde
1,localizer,2,871,,pince,,,,True,word,1.0,0.0,pince
1,localizer,2,872,biche,,,,,True,image,0.0,1.004,biche
1,localizer,2,873,,biche,j,j,541.0,True,word,1.0,0.0,biche
1,localizer,2,874,biche,,j,j,695.0,True,image,0.0,1.0,biche
1,localizer,2,875,,dinde,,,,True,word,1.0,0.0,dinde
1,localizer,2,876,pince,,,,,True,image,0.0,1.0,pince
1,localizer,2,877,,carré,,,,True,word,1.0,0.0,carré
1,localizer,2,878,croix,,,,,True,image,0.0,1.0,croix
1,localizer,2,879,,biche,,,,True,word,1.0,0.0,biche
1,localizer,2,880,pince,,,,,True,image,0.0,1.004,pince
1,localizer,2,881,,lampe,,,,True,word,1.0,0.0,lampe
1,localizer,2,882,losenge,,,,,True,image,0.0,1.0,losenge
1,localizer,2,883,,losenge,j,j,509.0,True,word,1.0,0.0,losenge
1,localizer,2,884,carré,,,,,True,image,0.0,1.0,carré
1,localizer,2,885,,lampe,,,,True,word,1.0,0.0,lampe
1,localizer,2,886,dinde,,,,,True,image,0.0,1.0,dinde
1,localizer,2,887,,carré,,,,True,word,1.0,0.0,carré
1,localizer,2,888,biche,,,,,True,image,0.0,1.0,biche
1,localizer,2,889,,cercle,,,,True,word,1.004,0.0,cercle
1,localizer,2,890,losenge,,,,,True,image,0.0,1.0,losenge
1,localizer,2,891,,carré,,,,True,word,1.0,0.0,carré
1,localizer,2,892,pince,,,,,True,image,0.0,1.0,pince
1,localizer,2,893,,carré,,,,True,word,1.0,0.0,carré
1,localizer,2,894,lampe,,,,,True,image,0.0,1.0,lampe
1,localizer,2,895,,dinde,,,,True,word,1.0,0.0,dinde
1,localizer,2,896,lampe,,,,,True,image,0.0,1.0,lampe
1,localizer,2,897,,croix,,,,True,word,1.0,0.0,croix
1,localizer,2,898,croix,,j,j,472.0,True,image,0.0,1.0,croix
1,localizer,2,899,,dinde,,,,True,word,1.004,0.0,dinde
1,localizer,2,900,carré,,,,,True,image,0.0,1.0,carré
1,localizer,2,901,,cercle,,,,True,word,1.0,0.0,cercle
1,localizer,2,902,cercle,,j,j,651.0,True,image,0.0,1.0,cercle
1,localizer,2,903,,biche,,,,True,word,1.0,0.0,biche
1,localizer,2,904,lampe,,,,,True,image,0.0,1.0,lampe
1,localizer,2,905,,dinde,,,,True,word,1.0,0.0,dinde
1,localizer,2,906,carré,,,,,True,image,0.0,1.0,carré
1,localizer,2,907,,losenge,,,,True,word,1.0,0.0,losenge
1,localizer,2,908,pince,,,,,True,image,0.0,1.004,pince
1,localizer,2,909,,croix,,,,True,word,1.0,0.0,croix
1,localizer,2,910,dinde,,,,,True,image,0.0,1.0,dinde
1,localizer,2,911,,losenge,,,,True,word,1.0,0.0,losenge
1,localizer,2,912,lampe,,,,,True,image,0.0,,lampe
1,localizer,2,913,,dinde,,,,True,word,1.0,0.0,dinde
1,localizer,2,914,cercle,,,,,True,image,0.0,1.0,cercle
1,localizer,2,915,,lampe,,,,True,word,1.0,0.0,lampe
1,localizer,2,916,cercle,,,,,True,image,0.0,1.004,cercle
1,localizer,2,917,,dinde,,,,True,word,1.0,0.0,dinde
1,localizer,2,918,croix,,,,,True,image,0.0,1.0,croix
1,localizer,2,919,,lampe,,,,True,word,1.0,0.0,lampe
1,localizer,2,920,carré,,,,,True,image,0.0,1.0,carré
1,localizer,2,921,,cercle,,,,True,word,1.0,0.0,cercle
1,localizer,2,922,dinde,,,,,True,image,0.0,1.0,dinde
1,localizer,2,923,,croix,,,,True,word,1.0,0.0,croix
1,localizer,2,924,losenge,,,,,True,image,0.0,1.004,losenge
1,localizer,2,925,,croix,,,,True,word,1.0,0.0,croix
1,localizer,2,926,croix,,j,j,517.0,True,image,0.0,1.0,croix
1,localizer,2,927,,pince,,,,True,word,1.0,0.0,pince
1,localizer,2,928,lampe,,,,,True,image,0.0,1.0,lampe
1,localizer,2,929,,biche,,,,True,word,1.0,0.0,biche
1,localizer,2,930,dinde,,,,,True,image,0.0,1.0,dinde
1,localizer,2,931,,losenge,,,,True,word,1.0,0.0,losenge
1,localizer,2,932,losenge,,j,j,484.0,True,image,0.0,1.0,losenge
1,localizer,2,933,,carré,,,,True,word,1.004,0.0,carré
1,localizer,2,934,losenge,,,,,True,image,0.0,1.0,losenge
1,localizer,2,935,,cercle,,,,True,word,1.0,0.0,cercle
1,localizer,2,936,biche,,,,,True,image,0.0,1.0,biche
1,localizer,2,937,,lampe,,,,True,word,1.0,0.0,lampe
1,localizer,2,938,carré,,,,,True,image,0.0,1.0,carré
1,localizer,2,939,,carré,j,,,False,word,1.004,0.0,carré
1,localizer,2,940,pince,,,,,True,image,0.0,1.0,pince
1,localizer,2,941,,pince,j,j,503.0,True,word,1.0,0.0,pince
1,localizer,2,942,pince,,j,j,519.0,True,image,0.0,1.0,pince
1,localizer,2,943,,croix,,,,True,word,1.0,0.0,croix
1,localizer,2,944,dinde,,,,,True,image,0.0,1.0,dinde
1,localizer,2,945,,croix,,,,True,word,1.0,0.0,croix
1,localizer,2,946,losenge,,,,,True,image,0.0,1.0,losenge
1,localizer,2,947,,losenge,j,,,False,word,1.004,0.0,losenge
1,localizer,2,948,cercle,,,,,True,image,0.0,1.0,cercle
1,localizer,2,949,,pince,,,,True,word,1.0,0.0,pince
1,localizer,2,950,cercle,,,,,True,image,0.0,1.0,cercle
1,localizer,2,951,,lampe,,,,True,word,1.0,0.0,lampe
1,localizer,2,952,croix,,,,,True,image,0.0,1.0,croix
1,localizer,2,953,,losenge,,,,True,word,1.0,0.0,losenge
1,localizer,2,954,lampe,,,,,True,image,0.0,1.0,lampe
1,localizer,2,955,,carré,,,,True,word,1.0,0.0,carré
1,localizer,2,956,croix,,,,,True,image,0.0,1.004,croix
1,localizer,2,957,,carré,,,,True,word,1.0,0.0,carré
1,localizer,2,958,biche,,,,,True,image,0.0,1.0,biche
1,localizer,2,959,,losenge,,,,True,word,1.0,0.0,losenge
1,localizer,2,960,carré,,,,,True,image,0.0,,carré
